Folder: solarmon/data/huawei (part 2)

File: huawei_sun2000_20220904092043.csv
local_time,input_power,day_active_power_peak,active_power,accumulated_yield_energy,daily_yield_energy,grid_voltage_a_phase,b_phase_voltage,c_phase_voltage,power_meter_active_power,grid_frequency,grid_exported_energy,grid_accumulated_energy,storage_state_of_capacity,storage_charge_discharge_power,storage_current_day_charge_capacity,storage_current_day_discharge_capacity,backup_switch_to_off_grid,a_phase_active_power,b_phase_active_power,c_phase_active_power,forward_energy
2022-09-04T09:21:13.6141,3.492,1.728,0.0,7172.6,1.48,240.8,237.8,230.1,1.098,50.0,6183.95,855.67,79.0,3.492,3.3,2.83,0.0,0.002,0.001,0.029,10.83
2022-09-04T09:29:23.1284,3.634,1.728,0.0,7172.6,1.48,241.3,237.3,232.3,1.145,50.0,6184.1,855.67,80.0,3.634,3.74,2.83,0.0,0.001,0.001,0.029,10.83375
2022-09-04T09:37:32.2735,3.783,1.728,0.0,7172.6,1.48,243.0,234.6,235.5,1.225,50.02,6184.25,855.67,82.0,3.783,4.26,2.83,0.0,0.001,0.001,0.03,10.83875
2022-09-04T09:45:41.2312,3.915,1.728,0.0,7172.6,1.48,242.3,235.5,233.6,1.265,50.0,6184.43,855.67,83.0,3.915,4.81,2.83,0.0,0.001,0.001,0.03,10.84375
2022-09-04T09:53:50.5688,4.026,1.728,0.0,7172.6,1.48,241.0,237.8,234.6,1.211,49.97,6184.6,855.67,85.0,4.026,5.11,2.83,0.0,0.001,0.001,0.03,10.84875
2022-09-04T10:01:59.3991,4.153,1.728,0.0,7172.6,1.48,242.6,237.1,233.8,1.342,49.97,6184.77,855.67,86.0,4.153,5.7,2.83,0.0,0.001,0.001,0.03,10.85375
2022-09-04T10:10:08.030792,4.271,1.728,0.0,7172.6,1.48,239.6,237.1,234.3,1.249,49.99,6184.95,855.67,88.0,4.271,6.19,2.83,0.0,0.002,0.001,0.03,10.8575
2022-09-04T10:18:17.0395,4.408,1.728,0.0,7172.6,1.48,246.1,232.8,237.8,1.379,49.97,6185.12,855.67,90.0,4.408,6.84,2.83,0.0,0.001,0.001,0.031,10.8625
2022-09-04T10:26:25.8449,4.513,1.728,0.0,7172.6,1.48,242.1,236.8,237.1,1.416,50.02,6185.31,855.67,91.0,4.518,7.4,2.83,0.0,0.002,0.001,0.03,10.8675
2022-09-04T10:34:35.3092,4.655,1.728,0.0,7172.63,1.51,247.6,240.1,237.1,1.379,50.0,6185.52,855.67,95.0,4.655,8.02,2.83,0.0,0.002,0.001,0.03,10.8725
2022-09-04T10:42:43.736,4.926,4.927,4.926,7173.1,1.98,248.3,238.1,237.3,6.518,50.0,6186.2,855.67,95.0,0.0,8.27,2.83,0.0,0.001,0.001,0.03,10.87625
2022-09-04T10:50:53.1709,2.749,5.191,2.749,7173.66,2.54,245.8,237.3,238.8,3.432,49.97,6186.91,855.67,95.0,0.0,8.29,2.83,0.0,0.001,0.001,0.031,10.88125
2022-09-04T10:59:01.934586,3.736,5.191,3.736,7174.13,3.01,246.8,237.8,237.6,4.368,50.0,6187.45,855.67,95.0,0.0,8.31,2.83,0.0,0.002,0.002,0.031,10.88625
2022-09-04T11:07:10.8507,2.358,5.191,2.358,7174.51,3.39,242.8,238.3,237.8,2.344,50.0,6187.87,855.67,95.0,0.0,8.33,2.83,0.0,0.002,0.001,0.03,10.89
2022-09-04T11:15:19.9832,1.897,5.191,1.897,7174.8,3.68,237.3,235.3,233.8,1.709,49.97,6188.14,855.67,95.0,0.0,8.36,2.83,0.0,0.002,0.001,0.03,10.89625
2022-09-04T11:23:34.8557,,,,,,,,,,,,,,,,,,0.002,0.001,0.031,10.9
2022-09-04T11:31:37.6175,5.454,6.354,5.454,7175.82,4.7,244.5,242.6,241.3,7.11,49.99,6189.41,855.67,95.0,0.0,8.4,2.83,0.0,0.001,0.001,0.031,10.90625
2022-09-04T11:39:46.355,5.008,6.354,5.008,7176.47,5.35,242.1,242.3,238.3,6.448,49.99,6190.25,855.67,95.0,0.0,8.43,2.83,0.0,0.001,0.001,0.031,10.91
2022-09-04T11:47:55.6228,4.923,6.354,4.923,7177.15,6.03,246.8,239.6,237.6,6.205,50.0,6191.12,855.67,95.0,0.0,8.45,2.83,0.0,0.002,0.001,0.03,10.91375
2022-09-04T11:56:04.981465,5.071,6.354,5.071,7177.82,6.7,247.6,242.1,240.6,6.472,50.0,6191.97,855.67,95.0,0.0,8.46,2.83,0.0,0.001,0.002,0.031,10.92
2022-09-04T12:04:13.8911,5.111,6.354,5.111,7178.51,7.39,247.8,236.8,240.3,6.429,49.97,6192.85,855.67,95.0,0.0,8.47,2.83,0.0,0.001,0.001,0.031,10.92375
2022-09-04T12:12:22.8964,5.105,6.354,5.105,7179.2,8.08,246.3,234.8,240.6,6.559,50.0,6193.74,855.67,95.0,0.0,8.47,2.83,0.0,0.002,0.001,0.031,10.93
2022-09-04T12:20:32.1557,5.112,6.354,5.112,7179.89,8.77,245.1,246.3,241.8,6.524,50.0,6194.62,855.67,95.0,0.0,8.47,2.83,0.0,0.001,0.001,0.031,10.93375
2022-09-04T12:28:41.039,5.118,6.354,5.118,7180.59,9.47,246.8,239.6,239.3,6.581,50.0,6195.5,855.67,95.0,0.0,8.48,2.83,0.0,0.001,0.001,0.031,10.93875
2022-09-04T12:36:49.6659,5.145,6.354,5.145,7181.29,10.17,249.3,243.3,240.8,6.644,49.97,6196.39,855.67,95.0,0.0,8.48,2.83,0.0,0.002,0.001,0.031,10.94375
2022-09-04T12:44:58.6552,5.164,6.354,5.164,7181.98,10.86,246.6,243.8,240.0,6.571,50.02,6197.29,855.67,95.0,0.0,8.48,2.83,0.0,0.002,0.001,0.031,10.9475
2022-09-04T12:53:07.694025,5.156,6.354,5.156,7182.68,11.56,252.8,243.5,240.8,6.642,50.0,6198.16,855.67,95.0,0.0,8.48,2.83,0.0,0.002,0.001,0.031,10.95375
2022-09-04T13:01:16.5859,5.172,6.354,5.172,7183.39,12.26,243.3,244.1,241.1,6.437,49.97,6199.0,855.67,95.0,0.0,8.48,2.83,0.0,0.002,0.002,0.031,10.9575
2022-09-04T13:09:25.3125,5.094,6.354,5.094,7184.08,12.96,249.1,237.8,240.1,6.418,49.99,6199.83,855.67,95.0,0.0,8.48,2.83,0.0,0.002,0.002,0.031,10.9625
2022-09-04T13:17:34.5159,5.103,6.354,5.103,7184.78,13.66,243.8,242.8,240.8,6.077,50.0,6200.68,855.67,95.0,0.0,8.48,2.83,0.0,0.002,0.001,0.031,10.9675
2022-09-04T13:25:43.6729,5.047,6.354,5.047,7185.46,14.34,244.3,244.3,239.8,6.132,50.0,6201.5,855.67,95.0,0.0,8.48,2.83,0.0,0.001,0.002,0.031,10.97375
2022-09-04T13:33:52.8888,5.137,6.354,5.137,7186.15,15.03,250.3,241.0,242.0,6.31,49.97,6202.33,855.67,95.0,0.0,8.48,2.83,0.0,0.002,0.002,0.031,10.9775
2022-09-04T13:42:01.956418,5.017,6.354,5.017,7186.84,15.72,238.8,243.0,239.3,6.182,50.0,6203.18,855.67,95.0,0.0,8.48,2.83,0.0,0.002,0.002,0.031,10.98125
2022-09-04T13:50:10.9075,5.071,6.354,5.071,7187.52,16.4,247.3,241.3,238.3,6.331,50.0,6204.02,855.67,95.0,0.0,8.48,2.83,0.0,0.002,0.002,0.031,10.98625
2022-09-04T13:58:20.099,4.864,6.354,4.864,7188.2,17.08,241.5,240.1,239.6,5.902,49.97,6204.87,855.67,95.0,0.0,8.48,2.83,0.0,0.002,0.002,0.031,10.9925
2022-09-04T14:06:29.1785,4.748,6.354,4.748,7188.85,17.73,244.3,236.8,238.1,5.827,50.0,6205.66,855.67,95.0,0.0,8.48,2.83,0.0,0.002,0.002,0.03,10.9975
2022-09-04T14:14:38.6777,4.755,6.354,4.755,7189.5,18.38,248.3,236.1,240.6,5.822,50.02,6206.45,855.67,95.0,0.0,8.48,2.83,0.0,0.001,0.002,0.031,11.00125
2022-09-04T14:22:47.6846,4.659,6.354,4.659,7190.14,19.02,242.1,239.8,242.8,5.92,50.02,6207.25,855.67,95.0,0.0,8.48,2.83,0.0,0.002,0.002,0.032,11.005
2022-09-04T14:30:56.8499,4.586,6.354,4.586,7190.77,19.65,247.1,235.1,240.3,5.825,49.99,6208.04,855.67,95.0,0.0,8.48,2.83,0.0,0.002,0.002,0.031,11.01125
2022-09-04T14:39:05.795544,4.507,6.354,4.507,7191.39,20.27,242.1,237.6,240.8,5.637,49.99,6208.83,855.67,95.0,0.0,8.48,2.83,0.0,0.002,0.002,0.031,11.01625
2022-09-04T14:47:14.8877,4.419,6.354,4.419,7191.99,20.87,247.8,238.3,239.8,5.545,50.0,6209.6,855.67,95.0,0.0,8.49,2.83,0.0,0.001,0.002,0.031,11.02125
2022-09-04T14:55:23.6479,4.337,6.354,4.337,7192.59,21.47,243.3,241.1,238.8,5.344,49.99,6210.33,855.67,95.0,0.0,8.49,2.83,0.0,0.002,0.002,0.031,11.025
2022-09-04T15:03:33.074,4.229,6.354,4.229,7193.17,22.05,239.6,237.8,237.8,5.445,49.97,6211.06,855.67,95.0,0.0,8.49,2.83,0.0,0.001,0.002,0.03,11.03125
2022-09-04T15:11:42.1282,4.11,6.354,4.11,7193.74,22.62,245.6,236.1,235.8,5.289,50.0,6211.79,855.67,95.0,0.0,8.49,2.83,0.0,0.001,0.001,0.03,11.03625
2022-09-04T15:19:51.0636,3.973,6.354,3.973,7194.29,23.17,245.6,239.3,237.8,5.084,49.99,6212.5,855.67,95.0,0.0,8.49,2.83,0.0,0.001,0.002,0.031,11.04
2022-09-04T15:28:00.280048,3.835,6.354,3.835,7194.82,23.7,245.1,236.8,241.8,4.946,50.02,6213.18,855.67,95.0,0.0,8.49,2.83,0.0,0.001,0.001,0.031,11.04375
2022-09-04T15:36:09.226846,3.608,6.354,3.608,7195.32,24.2,245.8,237.8,239.1,4.512,49.97,6213.81,855.67,95.0,0.0,8.49,2.83,0.0,0.001,0.001,0.031,11.04875
2022-09-04T15:44:18.7968,3.526,6.354,3.526,7195.8,24.68,243.6,240.1,238.6,4.438,49.97,6214.43,855.67,95.0,0.0,8.49,2.83,0.0,0.002,0.002,0.031,11.0525
2022-09-04T15:52:28.0705,3.322,6.354,3.322,7196.26,25.14,242.1,240.8,240.1,4.11,50.0,6215.0,855.67,95.0,0.0,8.49,2.83,0.0,0.002,0.002,0.031,11.05625
2022-09-04T16:00:37.1886,3.092,6.354,3.092,7196.7,25.58,243.8,237.3,237.1,3.905,50.04,6215.54,855.67,95.0,0.0,8.49,2.83,0.0,0.001,0.002,0.03,11.06125
2022-09-04T16:08:46.3194,2.88,6.354,2.88,7197.11,25.99,245.1,236.3,233.6,3.737,50.0,6216.06,855.67,95.0,0.0,8.49,2.83,0.0,0.002,0.002,0.029,11.0675
2022-09-04T16:16:55.4434,2.714,6.354,2.714,7197.49,26.37,242.8,235.5,237.1,3.398,50.0,6216.54,855.67,95.0,0.0,8.49,2.83,0.0,0.002,0.001,0.03,11.07125
2022-09-04T16:25:04.778377,2.522,6.354,2.522,7197.85,26.72,240.3,235.3,236.3,3.24,49.97,6216.99,855.67,95.0,0.0,8.49,2.83,0.0,0.002,0.001,0.03,11.07625
2022-09-04T16:33:13.8251,2.312,6.354,2.312,7198.17,27.05,241.8,235.6,234.6,2.861,49.99,6217.41,855.67,95.0,0.0,8.49,2.83,0.0,0.001,0.001,0.03,11.08
2022-09-04T16:41:23.0265,2.344,6.354,2.344,7198.49,27.37,241.8,235.8,234.6,3.078,49.97,6217.81,855.67,95.0,0.0,8.49,2.83,0.0,0.002,0.001,0.03,11.085
2022-09-04T16:49:32.5945,2.14,6.354,2.14,7198.8,27.68,242.3,235.6,235.1,2.718,49.99,6218.2,855.67,95.0,0.0,8.49,2.83,0.0,0.002,0.002,0.03,11.09
2022-09-04T16:57:41.5758,1.96,6.354,1.96,7199.07,27.95,241.3,235.0,234.0,2.518,49.99,6218.56,855.67,95.0,0.0,8.49,2.83,0.0,0.001,0.001,0.03,11.095
2022-09-04T17:05:49.8721,1.882,6.354,1.882,7199.33,28.21,240.6,235.3,232.0,2.389,50.02,6218.89,855.67,95.0,0.0,8.49,2.83,0.0,0.002,0.002,0.029,11.09875
2022-09-04T17:13:58.2651,1.81,6.354,1.81,7199.58,28.46,241.0,236.8,236.3,2.274,49.97,6219.2,855.67,95.0,0.0,8.5,2.83,0.0,0.001,0.002,0.03,11.1025
2022-09-04T17:22:07.443898,1.57,6.354,1.57,7199.81,28.69,240.6,235.1,233.8,1.95,49.97,6219.49,855.67,95.0,0.0,8.5,2.83,0.0,0.002,0.002,0.03,11.11
2022-09-04T17:30:16.8115,1.416,6.354,1.416,7200.01,28.89,239.8,235.5,233.1,1.553,49.99,6219.72,855.67,95.0,0.0,8.5,2.83,0.0,0.002,0.001,0.029,11.11375
2022-09-04T17:38:25.5327,1.224,6.354,1.224,7200.19,29.07,240.3,237.3,235.1,1.411,50.0,6219.93,855.67,95.0,0.0,8.5,2.83,0.0,0.001,0.002,0.03,11.1175
2022-09-04T17:46:34.8564,1.048,6.354,1.048,7200.34,29.22,238.6,236.8,231.5,1.042,49.97,6220.1,855.67,95.0,0.0,8.5,2.83,0.0,0.001,0.001,0.029,11.12125
2022-09-04T17:54:43.6073,0.858,6.354,0.858,7200.47,29.35,239.1,236.6,230.3,0.921,49.97,6220.25,855.67,95.0,0.0,8.5,2.83,0.0,0.002,0.002,0.029,11.1275
2022-09-04T18:02:52.5515,0.684,6.354,0.684,7200.58,29.46,235.3,235.5,232.6,0.634,50.0,6220.35,855.67,95.0,0.0,8.5,2.83,0.0,0.002,0.001,0.029,11.1325
2022-09-04T18:06:56.9661,0.653,6.354,1.436,7200.67,29.55,237.6,234.6,231.3,-0.008,49.99,6220.35,855.67,95.0,-0.783,8.5,2.83,0.0,0.417,0.38,0.522,11.205