Folder: solarmon/data/huawei

Note: README.md
# SolarMon

Monitors a Huawei SUN200-based photovoltaic system.

File: huawei_sun2000_20220901223152.csv
local_time,total_input_power,load_power,grid_power,total_battery_power,input_power,day_active_power_peak,active_power,accumulated_yield_energy,daily_yield_energy,grid_voltage_a_phase,b_phase_voltage,c_phase_voltage,power_meter_active_power,grid_frequency,grid_exported_energy,grid_accumulated_energy,storage_state_of_capacity,storage_charge_discharge_power,storage_current_day_charge_capacity,storage_current_day_discharge_capacity,system_time,backup_switch_to_off_grid,a_phase_active_power,b_phase_active_power,c_phase_active_power,forward_energy
2022-09-01T22:32:11.3403,0.0,0.558,0.069,-0.489,0.0,7.599,0.717,7105.03,30.17,228.8,237.3,234.1,-0.015,49.99,6113.47,855.14,81.0,-0.717,6.58,7.54,1662071525.0,0.0,0.001,0.001,0.03,6.58
2022-09-01T22:55:11.957,0.0,0.574,0.024,-0.55,0.0,7.599,0.665,7105.74,30.88,227.3,232.1,232.8,-0.002,50.0,6113.47,855.14,79.0,-0.629,6.58,8.34,1662072906.0,0.0,0.001,0.001,0.03,6.595
2022-09-01T23:18:08.777545,0.0,0.629,-0.02,-0.649,0.0,7.599,0.568,7106.0,31.14,231.3,236.6,231.6,-0.023,50.0,6113.47,855.14,78.0,-0.555,6.58,8.68,1662074284.0,0.0,0.001,0.001,0.029,6.6075
2022-09-01T23:41:18.2334,0.0,0.186,-0.001,-0.187,0.0,7.599,0.184,7106.08,31.22,229.6,233.3,231.8,0.0,50.0,6113.47,855.15,77.0,-0.186,6.58,8.87,1662075671.0,0.0,0.001,0.002,0.029,6.62
2022-09-02T00:04:08.811527,0.0,0.133,0.001,-0.132,0.0,0.228,0.13,7106.14,0.01,232.1,236.8,234.3,0.0,49.97,6113.47,855.15,77.0,-0.13,0.0,0.02,1662077043.0,0.0,0.001,0.001,0.03,6.6325
2022-09-02T00:27:09.588365,0.0,0.082,0.0,-0.082,0.0,0.228,0.077,7106.19,0.06,233.1,237.3,236.3,-0.001,50.02,6113.47,855.15,76.0,-0.077,0.0,0.14,1662078424.0,0.0,0.001,0.002,0.03,6.64625
2022-09-02T00:50:08.450051,0.0,0.211,0.004,-0.207,,,,,,,,,,,,,,,,,,,0.001,0.001,0.03,6.66
2022-09-02T01:13:00.170585,0.0,0.11,-0.001,-0.111,0.0,0.361,0.113,7106.28,0.15,234.3,234.8,235.3,0.001,50.0,6113.47,855.15,75.0,-0.11,0.0,0.39,1662081172.0,0.0,0.001,0.001,0.03,6.67125
2022-09-02T01:35:59.4646,0.0,0.166,-0.002,-0.168,0.0,0.361,0.169,7106.33,0.2,232.8,236.8,237.1,0.0,49.99,6113.47,855.15,75.0,-0.168,0.0,0.52,1662082554.0,0.0,0.001,0.001,0.03,6.68625
2022-09-02T01:58:58.3146,0.0,0.115,0.0,-0.115,0.0,0.361,0.114,7106.38,0.25,233.3,232.1,233.8,0.0,50.0,6113.47,855.15,75.0,-0.114,0.0,0.64,1662083932.0,0.0,0.001,0.001,0.03,6.6975
2022-09-02T02:21:58.0757,0.0,0.106,0.002,-0.104,0.0,0.361,0.107,7106.43,0.3,234.6,235.8,235.1,0.0,50.0,6113.47,855.15,74.0,-0.107,0.0,0.77,1662085312.0,0.0,0.001,0.001,0.03,6.71125
2022-09-02T02:44:56.4129,0.0,0.066,0.002,-0.064,0.0,0.361,0.064,7106.46,0.33,231.6,234.0,232.5,0.001,50.02,6113.47,855.15,74.0,-0.065,0.0,0.88,1662086692.0,0.0,0.001,0.001,0.03,6.72375
2022-09-02T03:07:53.982,0.0,0.196,0.009,-0.187,0.0,0.361,0.2,7106.51,0.38,232.8,234.8,233.8,-0.002,50.0,6113.47,855.15,73.0,-0.208,0.0,1.0,1662088069.0,0.0,0.001,0.001,0.03,6.7375
2022-09-02T03:30:54.2923,0.0,0.159,0.0,-0.159,0.0,0.361,0.153,7106.56,0.43,231.8,234.3,233.1,0.001,50.0,6113.47,855.15,73.0,-0.157,0.0,1.11,1662089450.0,0.0,0.001,0.001,0.03,6.74875
2022-09-02T03:53:51.8791,0.0,0.066,0.0,-0.066,0.0,0.361,0.06,7106.6,0.47,232.3,233.1,231.3,-0.003,50.0,6113.47,855.15,73.0,-0.066,0.0,1.23,1662090825.0,0.0,0.001,0.001,0.029,6.76375
2022-09-02T04:16:56.8025,0.0,0.564,0.001,-0.563,0.0,0.669,0.556,7106.73,0.6,230.1,234.6,233.8,-0.001,50.0,6113.47,855.15,72.0,-0.56,0.0,1.42,1662092211.0,0.0,0.001,0.001,0.03,6.7775
2022-09-02T04:39:55.0707,0.0,0.533,0.001,-0.532,0.0,0.669,0.532,7106.96,0.82,233.3,235.1,235.8,-0.003,50.0,6113.47,855.15,71.0,-0.532,0.0,1.73,1662093589.0,0.0,0.001,0.002,0.03,6.78875
2022-09-02T05:02:51.7129,0.0,0.641,0.001,-0.64,0.0,0.669,0.165,7107.16,1.03,236.0,235.6,235.8,-0.001,50.0,6113.47,855.15,70.0,-0.165,0.0,2.03,1662094967.0,0.0,0.002,0.001,0.03,6.80375
2022-09-02T05:25:51.906,0.0,0.194,0.0,-0.194,0.0,0.669,0.193,7107.21,1.08,232.8,235.3,234.8,0.0,49.99,6113.47,855.15,70.0,-0.193,0.0,2.16,1662096346.0,0.0,0.001,0.001,0.03,6.815
2022-09-02T05:48:51.294,0.0,0.068,0.003,-0.065,0.0,0.669,0.063,7107.26,1.13,232.5,235.8,234.0,-0.001,50.0,6113.47,855.15,69.0,-0.063,0.0,2.29,1662097725.0,0.0,0.001,0.001,0.03,6.82875
2022-09-02T06:11:52.3931,0.0,0.184,0.001,-0.183,0.0,1.243,0.189,7107.38,1.25,232.5,234.8,233.1,-0.001,49.97,6113.47,855.15,68.0,-0.19,0.0,2.46,1662099107.0,0.0,0.001,0.002,0.03,6.84125
2022-09-02T06:34:56.1491,0.004,0.12,0.0,-0.116,0.005,1.665,0.121,7107.5,1.37,232.8,234.1,235.3,0.0,50.0,6113.47,855.15,68.0,-0.121,0.0,2.68,1662100490.0,0.0,0.001,0.001,0.03,6.855
2022-09-02T06:57:59.1063,0.153,0.184,-0.003,-0.034,0.105,1.665,0.139,7107.55,1.42,233.0,235.8,233.8,-0.03,49.97,6113.47,855.15,67.0,-0.037,0.0,2.77,1662101872.0,0.0,0.001,0.001,0.03,6.8675
2022-09-02T07:21:00.398681,0.216,2.556,0.008,-2.332,0.172,2.619,2.514,7108.16,2.03,231.8,226.3,226.3,-0.033,49.97,6113.47,855.15,66.0,-2.333,0.0,3.26,1662103254.0,0.0,0.769,0.729,0.937,7.4475
2022-09-02T07:43:53.5517,1.098,0.157,0.007,0.948,0.973,2.759,0.005,7108.66,2.53,232.8,235.5,231.8,-0.005,49.99,6113.47,855.33,64.0,0.968,0.04,3.88,1662104627.0,0.0,0.002,0.001,0.03,8.08375
2022-09-02T08:06:50.7622,2.566,0.346,-0.334,1.886,1.92,2.759,0.0,7108.66,2.53,228.8,231.8,233.3,0.349,49.99,6113.56,855.33,66.0,1.919,0.51,3.88,1662106005.0,0.0,0.001,0.001,0.03,8.0975
2022-09-02T08:29:56.2568,3.398,0.223,-0.671,2.504,2.53,2.759,0.0,7108.66,2.53,233.3,232.3,234.1,0.668,50.0,6113.77,855.33,68.0,2.532,1.25,3.88,1662107391.0,0.0,0.001,0.001,0.03,8.11
2022-09-02T08:52:55.1151,4.123,0.311,-0.773,3.039,3.04,2.759,0.0,7108.66,2.53,237.3,236.8,235.1,0.771,50.0,6114.06,855.33,71.0,3.04,2.21,3.88,1662108769.0,0.0,0.001,0.001,0.03,8.12375
2022-09-02T09:16:00.210379,4.768,0.176,-1.077,3.515,3.543,2.759,0.0,7108.66,2.53,239.3,235.3,232.8,1.095,49.99,6114.41,855.33,75.0,3.538,3.35,3.88,1662110154.0,0.0,0.001,0.001,0.03,8.13625
2022-09-02T09:38:57.4581,5.401,0.311,-1.11,3.98,3.976,2.759,0.0,7108.66,2.53,240.8,235.0,234.3,1.119,50.0,6114.83,855.33,79.0,3.976,4.83,3.88,1662111531.0,0.0,0.002,0.002,0.03,8.14875
2022-09-02T10:01:54.4346,5.961,0.251,-1.303,4.407,4.424,2.759,0.0,7108.66,2.53,243.6,235.1,231.8,1.309,49.97,6115.27,855.33,84.0,4.43,6.35,3.88,1662112908.0,0.0,0.001,0.001,0.03,8.1625
2022-09-02T10:24:53.9968,6.422,0.213,-1.449,4.76,4.791,2.759,0.0,7108.66,2.53,246.5,238.8,235.3,1.463,50.02,6115.81,855.33,89.0,4.796,7.95,3.88,1662114289.0,0.0,0.002,0.001,0.03,8.175
2022-09-02T10:47:55.7162,6.663,0.419,-6.244,0.0,4.911,4.917,4.911,7108.76,2.63,243.1,238.1,232.3,6.254,50.0,6116.43,855.33,95.0,0.0,9.61,3.88,1662115669.0,0.0,0.001,0.002,0.029,8.18875
2022-09-02T11:10:55.8064,6.909,0.34,-6.569,0.0,5.105,5.105,5.105,7110.68,4.55,247.3,242.6,241.6,6.586,49.99,6118.89,855.33,95.0,0.0,9.75,3.88,1662117050.0,0.0,0.002,0.002,0.032,8.2025
2022-09-02T11:34:01.754569,7.084,0.306,-6.778,0.0,5.266,5.267,5.266,7112.68,6.55,244.8,241.6,238.1,6.806,50.0,6121.47,855.33,95.0,0.0,9.75,3.88,1662118435.0,0.0,0.002,0.002,0.03,8.215
2022-09-02T11:56:59.64,7.224,0.304,-6.92,0.0,5.347,5.36,5.347,7114.7,8.57,241.1,235.1,236.6,6.941,49.97,6124.08,855.33,95.0,0.0,9.76,3.88,1662119813.0,0.0,0.001,0.001,0.03,8.23
2022-09-02T12:20:00.555881,7.377,0.324,-7.053,0.0,5.467,5.486,5.467,7116.78,10.65,246.3,243.3,241.3,7.054,50.0,6126.5,855.33,95.0,0.0,9.76,3.88,1662121193.0,0.0,0.001,0.002,0.031,8.2425
2022-09-02T12:42:57.8357,7.32,0.001,-7.319,0.0,5.465,5.592,5.465,7118.78,12.65,244.0,241.1,235.8,7.191,50.0,6129.12,855.33,95.0,0.0,9.76,3.88,1662122571.0,0.0,0.002,0.001,0.03,8.25625
2022-09-02T13:05:56.6107,6.633,0.0,-6.633,0.0,5.215,5.793,5.215,7120.72,14.59,246.1,240.1,239.1,6.865,49.97,6131.66,855.33,95.0,0.0,9.78,3.88,1662123952.0,0.0,0.002,0.002,0.031,8.27
2022-09-02T13:28:59.2353,5.77,0.285,-5.485,0.0,3.612,5.793,3.612,7122.59,16.46,241.6,238.8,241.3,4.843,50.0,6134.08,855.33,95.0,0.0,9.78,3.88,1662125333.0,0.0,0.001,0.002,0.031,8.2825
2022-09-02T13:51:59.4807,3.272,0.289,-2.983,0.0,2.393,5.885,2.393,7124.32,18.19,239.8,235.5,232.3,2.994,50.02,6136.33,855.33,95.0,0.0,9.79,3.88,1662126714.0,0.0,0.001,0.001,0.03,8.29625
2022-09-02T14:14:57.8419,4.167,0.126,-4.041,0.0,3.511,5.885,3.511,7125.72,19.59,245.6,241.5,236.8,4.512,50.0,6138.14,855.33,95.0,0.0,9.8,3.88,1662128091.0,0.0,0.002,0.002,0.03,8.31
2022-09-02T14:38:01.263693,6.402,0.168,-6.234,0.0,4.808,5.885,4.808,7127.01,20.88,248.3,237.3,238.8,6.463,50.0,6139.81,855.33,95.0,0.0,9.8,3.88,1662129474.0,0.0,0.002,0.002,0.031,8.3225
2022-09-02T15:01:04.824494,3.78,0.343,-3.437,0.0,1.6,5.885,1.6,7128.25,22.12,233.8,237.5,233.1,2.011,49.97,6141.43,855.33,95.0,0.0,9.81,3.88,1662130860.0,0.0,0.001,0.001,0.029,8.33625
2022-09-02T15:24:02.344080,6.17,0.225,-5.945,0.0,4.489,5.885,4.489,7129.45,23.31,249.8,239.8,233.3,5.936,49.97,6142.99,855.33,95.0,0.0,9.81,3.88,1662132237.0,0.0,0.001,0.001,0.029,8.34875
2022-09-02T15:47:02.536388,5.522,0.258,-5.264,0.0,4.028,5.885,4.028,7131.13,25.0,241.3,240.3,234.6,5.23,49.97,6145.2,855.33,95.0,0.0,9.81,3.88,1662133617.0,0.0,0.001,0.001,0.03,8.3625
2022-09-02T16:10:00.906134,5.227,0.174,-5.053,0.0,3.927,5.885,3.927,7132.38,26.24,244.3,239.6,239.0,5.047,49.97,6146.83,855.33,95.0,0.0,9.82,3.88,1662134995.0,0.0,0.001,0.002,0.03,8.375
2022-09-02T16:33:03.062579,3.584,0.195,-3.389,0.0,2.366,5.885,2.366,7133.62,27.49,241.1,236.1,233.3,2.879,50.0,6148.41,855.33,95.0,0.0,9.83,3.88,1662136377.0,0.0,0.001,0.001,0.03,8.38875
2022-09-02T16:55:59.0376,3.017,0.144,-2.873,0.0,2.165,5.885,2.165,7134.54,28.41,243.6,235.3,235.1,2.863,50.0,6149.6,855.33,95.0,0.0,9.83,3.88,1662137753.0,0.0,0.001,0.001,0.03,8.4025
2022-09-02T17:18:59.8014,2.458,0.246,-2.212,0.0,1.792,5.885,1.792,7135.21,29.08,241.8,234.8,237.0,2.203,49.97,6150.5,855.33,95.0,0.0,9.87,3.88,1662139133.0,0.0,0.001,0.001,0.03,8.41375
2022-09-02T17:41:54.0904,1.713,0.846,-0.867,0.0,1.24,5.885,1.24,7135.79,29.66,237.6,237.8,232.6,0.868,49.97,6151.06,855.33,95.0,0.0,9.87,3.88,1662140508.0,0.0,0.002,0.001,0.029,8.4275
2022-09-02T18:04:51.9347,0.953,0.855,-0.098,0.0,0.71,5.885,0.71,7136.17,30.04,237.1,235.3,234.1,0.085,50.02,6151.18,855.33,95.0,0.0,9.87,3.89,1662141886.0,0.0,0.002,0.001,0.03,8.4425
2022-09-02T18:27:48.9586,0.274,0.274,0.0,0.0,0.201,5.885,0.201,7136.38,30.25,234.8,235.3,231.6,-0.344,49.97,6151.22,855.33,95.0,0.0,9.87,3.91,1662143262.0,0.0,0.002,0.001,0.029,8.45375
2022-09-02T18:50:48.567,0.119,0.553,0.023,-0.411,0.101,5.885,1.374,7136.71,30.58,234.0,236.5,234.3,0.003,49.97,6151.22,855.33,94.0,-1.273,9.87,4.2,1662144641.0,0.0,0.002,0.001,0.03,8.4675
2022-09-02T19:13:40.9828,0.093,0.839,-0.009,-0.755,0.066,5.885,0.82,7137.02,30.89,230.8,235.3,232.8,-0.002,49.97,6151.22,855.33,93.0,-0.754,9.87,4.56,1662146015.0,0.0,0.001,0.001,0.03,8.47875
2022-09-02T19:25:15.85,0.048,0.292,0.012,-0.232,0.032,5.885,0.267,7137.14,31.01,230.5,237.8,232.6,-0.123,50.0,6151.22,855.33,92.0,-0.243,9.87,4.75,1662146710.0,0.0,0.001,0.001,0.03,8.485

File: huawei_sun2000_20220903183631.csv
local_time,input_power,day_active_power_peak,active_power,accumulated_yield_energy,daily_yield_energy,grid_voltage_a_phase,b_phase_voltage,c_phase_voltage,power_meter_active_power,grid_frequency,grid_exported_energy,grid_accumulated_energy,storage_state_of_capacity,storage_charge_discharge_power,storage_current_day_charge_capacity,storage_current_day_discharge_capacity,backup_switch_to_off_grid,a_phase_active_power,b_phase_active_power,c_phase_active_power,forward_energy
2022-09-03T18:37:07.103465,,,,,,,,,,,,,,,,,,0.001,0.001,0.03,10.33125
2022-09-03T18:50:15.6422,0.141,6.186,1.561,7167.7,28.98,230.8,232.5,232.8,0.066,49.95,6182.95,855.59,92.0,-1.42,7.44,4.56,0.0,0.001,0.001,0.03,10.34
2022-09-03T19:03:30.1872,0.135,6.186,0.706,7167.85,29.13,231.6,231.6,234.6,0.001,50.0,6182.95,855.61,91.0,-0.571,7.45,4.75,0.0,0.001,0.001,0.03,10.3475
2022-09-03T19:16:45.0877,0.064,6.186,0.617,7168.01,29.29,228.6,232.8,233.5,-0.039,49.99,6182.95,855.63,91.0,-0.553,7.45,4.93,0.0,0.002,0.001,0.03,10.355
2022-09-03T19:29:59.6392,0.012,6.186,0.845,7168.17,29.45,229.1,234.1,234.0,-0.044,49.97,6182.95,855.63,90.0,-0.833,7.45,5.11,0.0,0.002,0.001,0.03,10.3625
2022-09-03T19:43:13.715,0.0,6.186,2.464,7168.35,29.63,224.0,236.8,231.6,-0.015,49.93,6182.95,855.63,89.0,-2.464,7.45,5.35,0.0,0.002,0.001,0.029,10.37
2022-09-03T19:56:27.7571,0.0,6.186,0.772,7168.55,29.83,228.3,233.1,232.0,0.014,49.99,6182.95,855.64,89.0,-0.772,7.45,5.63,0.0,0.001,0.001,0.03,10.37625
2022-09-03T20:09:46.0565,,,,,,,,,,,,,,,,,,0.001,0.001,0.03,10.385
2022-09-03T20:22:54.8037,0.0,6.186,0.694,7168.86,30.14,230.3,235.0,230.6,0.009,50.0,6182.95,855.64,87.0,-0.694,7.45,6.03,0.0,0.001,0.001,0.029,10.3925
2022-09-03T20:36:09.113448,0.0,6.186,0.841,7169.04,30.32,229.3,230.3,234.1,-0.026,49.97,6182.95,855.64,87.0,-0.841,7.45,6.27,0.0,0.001,0.001,0.03,10.39875
2022-09-03T20:49:23.3522,0.0,6.186,2.358,7169.3,30.58,225.8,236.0,234.6,-0.022,50.0,6182.95,855.65,86.0,-2.358,7.46,6.57,0.0,0.002,0.001,0.03,10.4075
2022-09-03T21:02:37.9966,0.0,6.186,0.439,7169.5,30.78,229.1,231.3,233.8,0.008,49.95,6182.95,855.65,85.0,-0.439,7.46,6.87,0.0,0.001,0.001,0.03,10.415
2022-09-03T21:15:52.8442,0.0,6.186,0.403,7169.59,30.87,230.3,234.1,233.1,-0.001,50.0,6182.95,855.65,85.0,-0.404,7.46,7.01,0.0,0.001,0.001,0.03,10.42125
2022-09-03T21:29:07.444269,0.0,6.186,0.52,7169.7,30.98,231.0,233.3,234.3,0.01,50.0,6182.95,855.65,84.0,-0.52,7.46,7.14,0.0,0.001,0.001,0.03,10.43
2022-09-03T21:42:22.2045,0.0,6.186,0.597,7169.82,31.1,230.5,233.3,233.1,-0.003,50.0,6182.95,855.65,84.0,-0.597,7.46,7.32,0.0,0.002,0.001,0.03,10.4375
2022-09-03T21:55:36.9126,0.0,6.186,0.506,7169.94,31.22,230.6,231.1,234.1,0.0,50.0,6182.95,855.65,83.0,-0.506,7.46,7.51,0.0,0.001,0.001,0.03,10.445
2022-09-03T22:08:51.8763,0.0,6.186,0.438,7170.05,31.33,232.6,233.3,233.0,0.0,49.97,6182.95,855.65,83.0,-0.438,7.46,7.68,0.0,0.001,0.001,0.03,10.4525
2022-09-03T22:22:06.692125,0.0,6.186,0.273,7170.15,31.43,232.8,232.6,233.1,-0.001,50.0,6182.95,855.65,82.0,-0.273,7.46,7.81,0.0,0.001,0.001,0.03,10.46
2022-09-03T22:35:21.7525,0.0,6.186,2.296,7170.37,31.65,224.8,237.1,236.6,-0.054,49.97,6182.95,855.65,81.0,-2.296,7.46,8.06,0.0,0.002,0.001,0.03,10.4675
2022-09-03T22:48:35.7198,0.0,6.186,0.331,7170.77,32.05,228.8,237.1,231.3,0.017,50.0,6182.95,855.65,80.0,-0.331,7.46,8.53,0.0,0.001,0.001,0.03,10.475
2022-09-03T23:01:50.4021,0.0,6.186,0.243,7170.84,32.12,231.8,238.8,234.3,0.002,49.95,6182.95,855.65,79.0,-0.243,7.46,8.65,0.0,0.001,0.001,0.03,10.48125
2022-09-03T23:15:04.275311,0.0,6.186,0.316,7170.9,32.18,233.3,237.6,234.8,-0.001,49.97,6182.95,855.65,79.0,-0.316,7.46,8.77,0.0,0.001,0.001,0.03,10.49
2022-09-03T23:28:18.5384,0.0,6.186,0.215,7170.95,32.23,234.5,235.6,234.1,0.0,50.0,6182.95,855.65,79.0,-0.215,7.46,8.85,0.0,0.001,0.001,0.03,10.4975
2022-09-03T23:41:33.8026,0.0,6.186,0.359,7171.0,32.28,231.5,233.3,233.1,-0.004,50.02,6182.95,855.65,78.0,-0.359,7.46,8.95,0.0,0.001,0.001,0.03,10.50375
2022-09-03T23:54:48.2049,0.0,6.186,0.365,7171.09,32.37,231.8,233.5,232.8,0.0,50.0,6182.95,855.65,78.0,-0.365,7.46,9.07,0.0,0.001,0.001,0.03,10.51125
2022-09-04T00:08:03.110670,0.0,0.281,0.102,7171.13,0.01,233.5,233.3,233.3,-0.001,49.97,6182.95,855.65,78.0,-0.102,0.0,0.06,0.0,0.001,0.001,0.03,10.52
2022-09-04T00:21:18.0318,0.0,0.281,0.165,7171.18,0.06,233.6,233.6,231.3,0.002,49.97,6182.95,855.65,77.0,-0.165,0.0,0.15,0.0,0.001,0.001,0.029,10.52625
2022-09-04T00:34:31.9146,0.0,0.289,0.239,7171.22,0.1,231.6,233.8,232.6,-0.001,50.0,6182.95,855.65,77.0,-0.239,0.0,0.23,0.0,0.001,0.001,0.03,10.53375
2022-09-04T00:47:46.3244,0.0,0.289,0.14,7171.25,0.13,231.6,231.8,232.0,-0.002,50.0,6182.95,855.65,77.0,-0.14,0.0,0.3,0.0,0.001,0.001,0.029,10.5425
2022-09-04T01:01:01.139842,0.0,0.374,0.137,7171.29,0.17,233.8,233.1,232.5,0.0,49.95,6182.95,855.65,76.0,-0.137,0.0,0.39,0.0,0.001,0.001,0.03,10.54875
2022-09-04T01:14:15.321,0.0,0.374,0.091,7171.32,0.2,234.3,234.8,234.1,0.001,49.97,6182.95,855.65,76.0,-0.091,0.0,0.46,0.0,0.001,0.001,0.03,10.55625
2022-09-04T01:27:29.5588,0.0,0.374,0.177,7171.34,0.22,232.6,234.3,233.1,-0.001,49.99,6182.95,855.65,76.0,-0.177,0.0,0.52,0.0,0.001,0.001,0.03,10.56375
2022-09-04T01:40:46.2166,0.0,0.374,0.121,7171.37,0.25,232.1,234.6,233.8,0.001,50.0,6182.95,855.65,76.0,-0.122,0.0,0.59,0.0,0.001,0.001,0.03,10.57125
2022-09-04T01:53:55.8992,0.0,0.374,0.114,7171.4,0.28,235.8,236.1,236.1,0.0,50.0,6182.95,855.65,76.0,-0.114,0.0,0.67,0.0,0.001,0.001,0.03,10.58
2022-09-04T02:07:10.5264,0.0,0.374,0.163,7171.43,0.31,232.1,235.1,233.6,0.0,49.97,6182.95,855.65,75.0,-0.163,0.0,0.74,0.0,0.001,0.001,0.03,10.58625
2022-09-04T02:20:24.3722,0.0,0.374,0.061,7171.45,0.33,230.8,234.8,231.6,0.0,50.0,6182.95,855.65,75.0,-0.061,0.0,0.8,0.0,0.001,0.001,0.029,10.59375
2022-09-04T02:33:39.0322,0.0,0.374,0.065,7171.47,0.35,232.3,233.6,232.1,-0.001,49.99,6182.95,855.65,75.0,-0.065,0.0,0.87,0.0,0.001,0.001,0.029,10.60125
2022-09-04T02:46:53.904,0.0,0.374,0.207,7171.5,0.38,233.8,233.8,232.8,0.001,50.0,6182.95,855.65,75.0,-0.207,0.0,0.94,0.0,0.001,0.001,0.03,10.60875
2022-09-04T03:00:08.856668,0.0,0.374,0.112,7171.53,0.41,235.8,233.3,233.6,0.0,49.97,6182.95,855.65,75.0,-0.112,0.0,1.01,0.0,0.001,0.001,0.03,10.61625
2022-09-04T03:13:23.2884,0.0,0.374,0.062,7171.55,0.43,232.1,233.8,233.3,0.0,50.0,6182.95,855.65,74.0,-0.062,0.0,1.08,0.0,0.001,0.001,0.03,10.62375
2022-09-04T03:26:37.6199,0.0,0.374,0.154,7171.57,0.45,233.0,234.6,232.8,-0.001,49.99,6182.95,855.65,74.0,-0.154,0.0,1.14,0.0,0.002,0.001,0.03,10.63125
2022-09-04T03:39:52.1925,0.0,0.374,0.112,7171.59,0.47,233.8,234.1,234.6,0.002,50.0,6182.95,855.65,74.0,-0.112,0.0,1.19,0.0,0.001,0.001,0.03,10.6375
2022-09-04T03:53:06.508106,0.0,0.374,0.1,7171.62,0.5,232.8,233.6,232.6,-0.002,50.0,6182.95,855.65,74.0,-0.1,0.0,1.28,0.0,0.002,0.001,0.029,10.64625
2022-09-04T04:06:21.5952,0.0,0.657,0.65,7171.67,0.55,232.5,234.8,233.8,0.001,49.99,6182.95,855.65,73.0,-0.65,0.0,1.37,0.0,0.001,0.001,0.03,10.65375
2022-09-04T04:19:36.3547,0.0,0.657,0.523,7171.79,0.67,231.0,235.8,234.1,0.002,50.0,6182.95,855.65,73.0,-0.523,0.0,1.5,0.0,0.001,0.001,0.03,10.66
2022-09-04T04:32:50.3137,0.0,0.657,0.528,7171.91,0.79,233.8,235.6,235.1,-0.006,50.0,6182.95,855.65,72.0,-0.528,0.0,1.7,0.0,0.001,0.001,0.03,10.66875
2022-09-04T04:46:05.041228,0.0,0.75,0.561,7172.04,0.92,232.6,235.8,234.8,0.002,49.97,6182.95,855.65,72.0,-0.561,0.0,1.85,0.0,0.001,0.001,0.03,10.67625
2022-09-04T04:59:19.5977,0.0,0.75,0.552,7172.16,1.04,231.6,234.3,233.8,-0.006,50.0,6182.95,855.65,71.0,-0.552,0.0,2.03,0.0,0.001,0.001,0.03,10.68375
2022-09-04T05:12:34.4405,0.0,0.778,0.098,7172.21,1.09,234.0,233.6,233.6,0.0,49.97,6182.95,855.65,71.0,-0.098,0.0,2.16,0.0,0.001,0.001,0.03,10.69125
2022-09-04T05:25:49.0252,0.0,0.778,0.063,7172.24,1.12,233.8,234.8,233.6,0.001,49.97,6182.95,855.65,71.0,-0.063,0.0,2.22,0.0,0.001,0.001,0.03,10.69875
2022-09-04T05:39:03.997376,0.0,0.778,0.168,7172.26,1.14,233.6,232.8,233.3,0.0,50.0,6182.95,855.65,71.0,-0.168,0.0,2.28,0.0,0.001,0.001,0.03,10.705
2022-09-04T05:52:18.3503,0.0,0.778,0.093,7172.28,1.16,233.8,234.6,234.6,-0.001,49.99,6182.95,855.65,70.0,-0.093,0.0,2.35,0.0,0.001,0.001,0.03,10.7125
2022-09-04T06:05:32.9085,0.0,0.778,0.101,7172.31,1.19,234.8,234.1,233.5,-0.002,49.97,6182.95,855.65,70.0,-0.101,0.0,2.42,0.0,0.001,0.001,0.03,10.71875
2022-09-04T06:18:47.4824,0.0,0.778,0.201,7172.33,1.21,235.3,234.3,232.8,0.0,50.0,6182.95,855.65,70.0,-0.201,0.0,2.48,0.0,0.001,0.001,0.029,10.7275
2022-09-04T06:32:02.292626,0.0,0.778,0.063,7172.36,1.24,233.8,233.8,232.3,0.002,50.0,6182.95,855.65,70.0,-0.063,0.0,2.56,0.0,0.001,0.001,0.03,10.735
2022-09-04T06:45:16.7085,0.004,0.778,0.064,7172.38,1.26,233.0,234.1,233.1,0.001,49.99,6182.95,855.65,69.0,-0.06,0.0,2.61,0.0,0.001,0.001,0.03,10.74125
2022-09-04T06:58:31.515,0.029,0.778,0.176,7172.4,1.28,234.8,235.5,234.6,-0.021,49.99,6182.95,855.65,69.0,-0.147,0.0,2.66,0.0,0.001,0.001,0.03,10.75125
2022-09-04T07:11:46.1495,0.082,1.728,0.063,7172.48,1.36,234.1,235.8,233.8,0.0,50.02,6182.95,855.65,69.0,0.019,0.0,2.77,0.0,0.001,0.001,0.03,10.7575
2022-09-04T07:25:00.948355,0.221,1.728,0.072,7172.54,1.42,233.8,235.6,234.8,0.0,50.0,6182.95,855.66,69.0,0.149,0.01,2.82,0.0,0.001,0.001,0.03,10.76375
2022-09-04T07:38:15.2316,0.531,1.728,0.218,7172.57,1.45,233.8,234.1,232.6,0.004,49.95,6182.95,855.67,69.0,0.313,0.03,2.83,0.0,0.001,0.001,0.029,10.7725
2022-09-04T07:51:34.279,,,,,,,,,,,,,,,,,,0.001,0.001,0.03,10.78
2022-09-04T08:04:43.5939,1.558,1.728,0.0,7172.6,1.48,235.6,233.3,231.3,0.381,50.0,6182.97,855.67,70.0,1.558,0.33,2.83,0.0,0.001,0.001,0.029,10.78625
2022-09-04T08:17:58.6669,2.089,1.728,0.0,7172.6,1.48,237.6,236.1,235.1,0.555,49.99,6183.04,855.67,71.0,2.089,0.6,2.83,0.0,0.001,0.001,0.03,10.795
2022-09-04T08:31:13.4124,2.436,1.728,0.0,7172.6,1.48,237.8,232.6,234.5,0.773,49.97,6183.2,855.67,72.0,2.436,1.05,2.83,0.0,0.001,0.001,0.03,10.8025
2022-09-04T08:44:28.2374,2.73,1.728,0.0,7172.6,1.48,241.3,236.8,233.5,0.838,50.0,6183.37,855.67,73.0,2.725,1.52,2.83,0.0,0.001,0.001,0.03,10.80875
2022-09-04T08:57:43.2022,3.046,1.728,0.0,7172.6,1.48,239.3,234.8,231.1,0.946,50.0,6183.56,855.67,75.0,3.043,2.13,2.83,0.0,0.001,0.001,0.029,10.81625
2022-09-04T09:10:57.868,3.31,1.728,0.0,7172.6,1.48,242.1,239.3,232.1,1.035,49.99,6183.77,855.67,77.0,3.31,2.81,2.83,0.0,0.001,0.001,0.029,10.825
2022-09-04T09:20:06.886875,3.479,1.728,0.0,7172.6,1.48,239.8,237.1,232.8,1.092,50.02,6183.93,855.67,79.0,3.479,3.3,2.83,0.0,0.001,0.001,0.029,10.83