Folder: solarmon/docs/data

Note: docs/data/analisi-errori-20230219.md
# Analisi errori

I log coprono il periodo che va dalle 16 dell'11/02/2023 alle 21 del 19/02/2023.

## Andrea

### Errori

866 errori, così suddivisi:

* 540 errori di comunicazione con il contatore "house"
* 324 errori di comunicazione con il contatore "old-pv"

I restanti due sono:

    2023-02-12T17:34:17 WARNING Error "wrong size for frame b'3210FA01D601A8<RX ERROR' (got 23, expected 14)" while reading parameter "T-ACS"...
    2023-02-12T22:17:52 ERROR Could not write to "EmonCMS", reason: HTTPConnectionPool(host='127.0.0.1', port=80): Max retries exceeded with url: /input/post.json (Caused by NewConnectionError('<urllib3.connection.HTTPConnection object at 0xb5a431b0>: Failed to establish a new connection: [Errno 111] Connection refused'))

Gli errori rilevati sono così distribuiti nei giorni:

| Data       | Errori "house" | Errori "old-pv" | Note         |
|------------|----------------|-----------------|--------------|
| 11/02/2023 |             21 |              12 | dalle 16     |
| 12/02/2023 |             55 |              28 |              |
| 13/02/2023 |             77 |              34 |              |
| 14/02/2023 |             69 |              47 |              |
| 15/02/2023 |             73 |              42 |              |
| 16/02/2023 |             60 |              40 |              |
| 17/02/2023 |             71 |              41 |              |
| 18/02/2023 |             54 |              49 |              |
| 19/02/2023 |             59 |              30 | fino alle 21 |

### Warning

3505 segnalazioni registrate, tutte riconducibili alla comunicazione con la pompa di calore Daikin, di cui 3503 casi `NO DATA`. Le due altre segnalazioni sono:

    2023-02-12T07:57:42 WARNING Cleanup recv buffer before send: 0xff
    2023-02-12T17:34:17 WARNING Error "wrong size for frame b'3210FA01D601A8<RX ERROR' (got 23, expected 14)" while reading parameter "T-ACS"...

Va tenuto conto che della pompa di calore vengono rilevati 26 parametri e se si verifica un errore di lettura sul primo è assai probabile che lo stesso errore si verifichi anche per quelli successivi:

* 127 notifiche 'NO DATA` relative a "T-mandata", il primo parametro letto
* 153 notifiche 'NO DATA` relative a "T-mandata-CR", l'ultimo parametro letto

| Data       | Segnalazioni `NO DATA` | Note         |
|------------|------------------------|--------------|
| 11/02/2023 |                      9 | dalle 16     |
| 12/02/2023 |                     17 |              |
| 13/02/2023 |                     19 |              |
| 14/02/2023 |                     15 |              |
| 15/02/2023 |                     23 |              |
| 16/02/2023 |                     16 |              |
| 17/02/2023 |                     18 |              |
| 18/02/2023 |                     21 |              |
| 19/02/2023 |                     14 | fino alle 21 |

## Laura

### Errori

Solamente due errori registrati, entrambi relativi a EmonCMS:

    2023-02-12T16:56:35 ERROR Could 

Note: README.md
# SolarMon

Monitors a Huawei SUN200-based photovoltaic system.

File: huawei_sun2000_20220903060208.csv
local_time,total_input_power,load_power,grid_power,total_battery_power,input_power,day_active_power_peak,active_power,accumulated_yield_energy,daily_yield_energy,grid_voltage_a_phase,b_phase_voltage,c_phase_voltage,power_meter_active_power,grid_frequency,grid_exported_energy,grid_accumulated_energy,storage_state_of_capacity,storage_charge_discharge_power,storage_current_day_charge_capacity,storage_current_day_discharge_capacity,backup_switch_to_off_grid,a_phase_active_power,b_phase_active_power,c_phase_active_power,forward_energy
2022-09-03T06:03:03.571967,0.0,0.191,0.001,-0.19,0.0,0.847,0.189,7140.38,1.66,233.5,236.3,235.1,-0.002,50.0,6151.22,855.35,75.0,-0.189,0.03,2.97,0.0,0.001,0.001,0.031,8.845
2022-09-03T06:13:04.658008,0.0,0.286,0.0,-0.286,0.0,0.847,0.281,7140.41,1.69,229.8,235.6,233.8,0.002,49.97,6151.22,855.35,74.0,-0.282,0.03,3.02,0.0,0.001,0.001,0.03,8.85125
2022-09-03T06:23:04.242959,0.0,0.16,0.002,-0.158,0.0,0.847,0.169,7140.44,1.72,234.1,236.8,234.1,0.011,50.0,6151.22,855.35,74.0,-0.158,0.03,3.09,0.0,0.001,0.001,0.029,8.85625
2022-09-03T06:33:04.232952,0.001,0.249,0.0,-0.248,0.002,0.847,0.243,7140.47,1.75,233.5,237.6,234.8,-0.001,49.97,6151.22,855.35,74.0,-0.24,0.03,3.15,0.0,0.001,0.001,0.03,8.86125
2022-09-03T06:43:03.258722,0.032,0.153,-0.002,-0.123,0.023,0.847,0.146,7140.5,1.78,236.0,236.6,235.8,0.001,50.0,6151.22,855.35,74.0,-0.123,0.03,3.21,0.0,0.001,0.001,0.03,8.8675
2022-09-03T06:53:03.173294,0.103,0.275,-0.001,-0.173,0.067,0.847,0.236,7140.53,1.81,235.1,237.3,235.1,-0.003,50.02,6151.22,855.35,74.0,-0.169,0.03,3.26,0.0,0.001,0.001,0.03,8.875
2022-09-03T07:03:04.662848,0.124,0.189,0.0,-0.065,0.083,0.847,0.145,7140.56,1.84,233.1,235.1,232.8,0.003,50.0,6151.22,855.35,74.0,-0.065,0.03,3.29,0.0,0.001,0.001,0.029,8.88
2022-09-03T07:13:05.523079,0.166,0.269,0.001,-0.102,0.123,0.847,0.223,7140.59,1.87,233.1,235.1,234.1,0.001,50.0,6151.22,855.35,74.0,-0.097,0.03,3.32,0.0,0.001,0.001,0.03,8.885
2022-09-03T07:23:02.869458,0.202,0.167,0.003,0.038,0.156,0.847,0.115,7140.61,1.89,232.0,234.8,233.6,0.0,49.97,6151.22,855.35,74.0,0.041,0.03,3.34,0.0,0.001,0.001,0.03,8.89
2022-09-03T07:33:05.084020,0.281,0.229,0.0,0.052,0.229,0.847,0.162,7140.63,1.91,232.8,234.3,232.0,0.001,49.99,6151.22,855.36,74.0,0.067,0.04,3.35,0.0,0.001,0.001,0.029,8.8975
2022-09-03T07:43:04.637850,0.987,1.663,0.006,-0.67,0.873,1.601,1.57,7140.69,1.97,230.8,237.6,235.6,-0.002,50.0,6151.22,855.36,74.0,-0.649,0.06,3.35,0.0,0.002,0.001,0.03,8.9025
2022-09-03T07:53:04.941005,1.895,0.342,-0.153,1.4,1.477,1.601,0.0,7140.73,2.01,232.3,235.3,231.8,0.271,49.97,6151.24,855.36,74.0,1.477,0.15,3.39,0.0,0.001,0.001,0.029,8.9075
2022-09-03T08:03:03.746445,2.345,0.244,-0.377,1.724,1.739,1.601,0.0,7140.73,2.01,234.1,235.5,227.1,0.381,50.02,6151.29,855.36,75.0,1.741,0.41,3.39,0.0,0.001,0.001,0.028,8.9125
2022-09-03T08:13:05.182491,2.7,0.207,-0.51,1.983,1.989,1.601,0.0,7140.73,2.01,235.0,231.1,232.8,0.507,49.97,6151.37,855.36,76.0,1.991,0.66,3.39,0.0,0.001,0.001,0.03,8.92
2022-09-03T08:23:03.605675,3.012,0.209,-0.573,2.23,2.26,1.601,0.0,7140.73,2.01,239.3,235.8,235.1,0.586,50.0,6151.45,855.36,77.0,2.259,1.0,3.39,0.0,0.001,0.001,0.03,8.925
2022-09-03T08:33:05.179535,3.381,0.602,-0.292,2.487,2.505,1.601,0.0,7140.73,2.01,239.1,233.6,234.8,0.671,50.0,6151.5,855.36,78.0,2.504,1.32,3.39,0.0,0.002,0.001,0.03,8.93
2022-09-03T08:43:03.270434,3.716,0.255,-0.744,2.717,2.73,1.601,0.0,7140.73,2.01,237.3,233.5,233.8,0.586,49.99,6151.62,855.36,79.0,2.73,1.75,3.39,0.0,0.002,0.001,0.029,8.935
2022-09-03T08:53:04.810958,3.958,2.202,0.0,1.756,2.967,1.601,0.0,7140.75,2.03,240.3,235.6,233.8,0.777,49.99,6151.72,855.36,80.0,2.973,2.21,3.39,0.0,0.002,0.001,0.03,8.9425
2022-09-03T09:03:03.334824,4.329,0.23,-0.911,3.188,3.194,1.601,0.0,7140.75,2.03,240.3,238.0,236.1,0.919,49.93,6151.87,855.36,82.0,3.194,2.6,3.39,0.0,0.001,0.001,0.03,8.9475
2022-09-03T09:13:04.312250,4.633,0.232,-0.985,3.416,3.281,1.601,0.0,7140.75,2.03,240.1,238.6,235.8,0.13,50.02,6152.0,855.36,83.0,3.281,3.06,3.39,0.0,0.002,0.002,0.03,8.9525
2022-09-03T09:23:03.656466,4.326,1.08,-0.052,3.194,3.589,1.601,0.0,7140.75,2.03,240.8,236.6,230.0,0.213,50.0,6152.02,855.36,84.0,3.607,3.62,3.39,0.0,0.002,0.001,0.029,8.9575
2022-09-03T09:33:04.137743,5.08,0.336,-0.986,3.758,3.824,1.601,0.0,7140.75,2.03,240.3,234.8,232.8,0.408,50.0,6152.12,855.36,86.0,3.818,4.14,3.39,0.0,0.002,0.001,0.029,8.965
2022-09-03T09:43:06.166852,4.767,0.924,-0.306,3.537,3.273,1.601,0.0,7140.75,2.03,242.1,237.5,229.1,0.205,50.02,6152.2,855.36,88.0,3.237,4.79,3.39,0.0,0.002,0.002,0.029,8.97
2022-09-03T09:53:03.752587,5.045,0.19,-1.128,3.727,3.469,1.601,0.0,7140.75,2.03,237.3,238.3,232.8,1.035,50.02,6152.29,855.36,90.0,3.469,5.26,3.39,0.0,0.001,0.001,0.03,8.975
2022-09-03T10:03:04.284175,5.416,0.885,-0.523,4.008,3.974,1.601,0.0,7140.75,2.03,237.6,237.8,238.0,0.418,49.97,6152.41,855.36,91.0,3.974,5.88,3.39,0.0,0.002,0.001,0.03,8.98125
2022-09-03T10:13:03.320032,5.791,0.131,-1.366,4.294,4.354,1.601,0.0,7140.76,2.04,238.8,238.8,234.8,1.388,49.97,6152.62,855.36,93.0,4.356,6.48,3.39,0.0,0.001,0.002,0.03,8.9875
2022-09-03T10:23:05.332677,5.759,0.27,-5.489,0.0,4.273,4.332,4.273,7141.0,2.28,243.8,237.3,238.6,5.562,50.0,6153.08,855.36,95.0,0.0,7.13,3.39,0.0,0.001,0.002,0.031,8.9925
2022-09-03T10:33:03.370017,6.053,0.167,-5.886,0.0,4.479,4.486,4.479,7141.73,3.01,246.6,240.3,238.8,5.908,50.0,6154.04,855.36,95.0,0.0,7.13,3.39,0.0,0.001,0.001,0.03,8.9975
2022-09-03T10:43:05.740194,6.153,0.243,-5.91,0.0,4.564,4.594,4.564,7142.48,3.76,246.8,239.1,238.8,5.918,50.02,6155.02,855.36,95.0,0.0,7.13,3.39,0.0,0.002,0.002,0.031,9.00375
2022-09-03T10:53:03.965203,6.322,0.151,-6.171,0.0,4.698,4.699,4.698,7143.25,4.53,249.1,236.6,237.8,6.19,50.0,6156.04,855.36,95.0,0.0,7.13,3.39,0.0,0.002,0.001,0.031,9.01125
2022-09-03T11:03:04.211794,6.572,0.241,-6.331,0.0,4.896,4.896,4.896,7144.04,5.32,247.1,237.3,239.3,6.358,49.97,6157.08,855.36,95.0,0.0,7.13,3.39,0.0,0.001,0.001,0.031,9.01625
2022-09-03T11:13:03.121768,6.296,0.114,-6.182,0.0,4.915,4.984,4.915,7144.86,6.14,247.3,240.3,235.6,6.507,50.0,6158.16,855.36,95.0,0.0,7.13,3.39,0.0,0.001,0.001,0.03,9.02125
2022-09-03T11:23:04.556672,6.244,0.164,-6.08,0.0,4.602,5.242,4.602,7145.68,6.96,246.6,241.0,237.8,5.932,49.97,6159.22,855.36,95.0,0.0,7.13,3.39,0.0,0.001,0.002,0.03,9.0275
2022-09-03T11:33:05.087921,6.347,1.0,-5.347,0.0,4.759,5.27,4.759,7146.48,7.76,250.0,238.6,239.6,5.411,50.0,6160.25,855.36,95.0,0.0,7.14,3.39,0.0,0.002,0.002,0.031,9.03375
2022-09-03T11:43:03.848829,6.785,0.849,-5.936,0.0,4.648,5.27,4.648,7147.3,8.58,248.3,237.1,238.3,5.271,50.0,6161.2,855.36,95.0,0.0,7.14,3.39,0.0,0.002,0.002,0.03,9.03875
2022-09-03T11:53:05.617001,7.147,0.927,-6.22,0.0,5.358,5.415,5.358,7148.1,9.38,247.1,238.3,240.8,6.329,50.0,6162.14,855.36,95.0,0.0,7.15,3.39,0.0,0.002,0.002,0.031,9.04375
2022-09-03T12:03:03.554553,6.473,0.136,-6.337,0.0,4.863,5.415,4.863,7148.81,10.09,248.8,242.1,239.6,6.413,50.0,6163.0,855.36,95.0,0.0,7.15,3.39,0.0,0.002,0.002,0.031,9.05125
2022-09-03T12:13:04.302469,7.4,1.706,-5.694,0.0,5.456,5.573,5.456,7149.56,10.84,252.1,243.8,237.3,5.653,50.02,6163.95,855.36,95.0,0.0,7.15,3.39,0.0,0.002,0.001,0.031,9.0575
2022-09-03T12:23:03.804328,7.162,1.761,-5.401,0.0,5.346,5.6,5.346,7150.48,11.76,247.6,243.3,235.5,5.414,49.97,6164.89,855.36,95.0,0.0,7.15,3.39,0.0,0.002,0.001,0.03,9.0625
2022-09-03T12:33:04.872773,7.303,1.893,-5.41,0.0,5.426,5.6,5.426,7151.33,12.61,252.6,241.6,236.6,5.37,49.97,6165.7,855.36,95.0,0.0,7.15,3.39,0.0,0.002,0.001,0.03,9.06875
2022-09-03T12:43:02.618845,5.614,0.316,-5.298,0.0,5.021,5.6,5.021,7152.1,13.38,243.6,241.6,242.0,6.075,50.02,6166.49,855.36,95.0,0.0,7.15,3.39,0.0,0.002,0.001,0.031,9.075
2022-09-03T12:53:03.561775,5.062,0.228,-4.834,0.0,3.058,6.186,3.058,7152.82,14.1,243.6,239.0,238.1,4.097,49.99,6167.43,855.36,95.0,0.0,7.15,3.39,0.0,0.001,0.001,0.031,9.08
2022-09-03T13:03:03.563270,6.89,0.534,-6.356,0.0,4.729,6.186,4.729,7153.59,14.87,244.8,242.3,240.1,5.837,49.97,6168.41,855.36,95.0,0.0,7.15,3.39,0.0,0.001,0.002,0.031,9.08625
2022-09-03T13:13:05.380310,6.936,0.541,-6.395,0.0,5.013,6.186,5.013,7154.36,15.64,242.8,243.1,241.3,5.67,50.02,6169.35,855.36,95.0,0.0,7.16,3.39,0.0,0.002,0.002,0.031,9.0925
2022-09-03T13:23:03.903363,7.311,0.226,-7.085,0.0,5.535,6.186,5.535,7155.13,16.4,250.6,241.3,240.3,7.099,50.02,6170.33,855.36,95.0,0.0,7.17,3.39,0.0,0.002,0.002,0.031,9.09875
2022-09-03T13:33:03.313356,7.064,0.711,-6.353,0.0,5.494,6.186,5.494,7155.96,17.23,244.3,243.6,242.3,6.765,49.99,6171.35,855.36,95.0,0.0,7.17,3.39,0.0,0.002,0.002,0.032,9.10375
2022-09-03T13:43:04.186040,6.331,0.718,-5.613,0.0,3.349,6.186,3.349,7156.55,17.83,244.0,237.3,237.3,4.19,49.99,6172.06,855.36,95.0,0.0,7.17,3.39,0.0,0.001,0.002,0.031,9.11
2022-09-03T13:53:03.374285,4.223,0.482,-3.741,0.0,3.585,6.186,3.585,7157.19,18.47,244.6,238.0,238.8,4.578,50.02,6172.87,855.36,95.0,0.0,7.17,3.39,0.0,0.002,0.002,0.031,9.11625
2022-09-03T14:03:05.378999,6.473,0.439,-6.034,0.0,,,,,,,,,,,,,,,,,,0.002,0.001,0.031,9.1225
2022-09-03T14:13:04.401252,4.739,0.615,-4.124,0.0,3.646,6.186,3.646,7158.41,19.69,246.3,235.6,237.3,4.36,50.0,6174.37,855.36,95.0,0.0,7.18,3.39,0.0,0.002,0.001,0.03,9.1275
2022-09-03T14:23:03.604615,4.141,2.435,-1.706,0.0,3.526,6.186,3.526,7159.01,20.29,244.8,236.3,237.5,2.289,50.0,6174.89,855.36,95.0,0.0,7.18,3.39,0.0,0.656,0.53,0.726,9.34375
2022-09-03T14:33:03.185660,3.453,2.897,-0.556,0.0,2.579,6.186,2.579,7159.46,20.74,239.8,237.8,235.8,0.551,50.0,6175.04,855.36,95.0,0.0,7.19,3.39,0.0,0.809,0.745,0.929,9.74625
2022-09-03T14:43:04.595566,4.111,2.969,-1.142,0.0,3.015,6.186,3.015,7159.93,21.21,243.8,238.1,235.1,1.105,50.0,6175.2,855.36,95.0,0.0,7.19,3.39,0.0,0.853,0.797,0.954,10.1675
2022-09-03T14:53:03.708972,4.892,0.232,-4.66,0.0,3.73,6.186,3.73,7160.49,21.77,246.6,238.0,240.1,4.859,50.0,6175.87,855.36,95.0,0.0,7.19,3.39,0.0,0.002,0.001,0.031,10.2075
2022-09-03T15:03:04.006754,5.405,0.241,-5.164,0.0,3.63,6.186,3.63,7161.19,22.47,245.3,238.1,240.8,4.673,50.04,6176.75,855.36,95.0,0.0,7.19,3.39,0.0,0.001,0.001,0.031,10.2125
2022-09-03T15:13:04.112235,5.673,0.211,-5.462,0.0,4.209,6.186,4.209,7161.78,23.06,246.3,237.3,237.5,5.485,49.97,6177.5,855.36,95.0,0.0,7.19,3.39,0.0,0.002,0.002,0.03,10.21875
2022-09-03T15:23:03.235527,5.497,0.222,-5.275,0.0,4.06,6.186,4.06,7162.47,23.75,246.8,239.8,238.3,5.341,49.99,6178.41,855.36,95.0,0.0,7.19,3.39,0.0,0.002,0.001,0.031,10.22375
2022-09-03T15:33:03.735587,5.16,0.254,-4.906,0.0,3.81,6.186,3.81,7163.12,24.4,247.5,237.1,239.3,4.915,50.0,6179.24,855.36,95.0,0.0,7.2,3.39,0.0,0.002,0.001,0.031,10.22875
2022-09-03T15:43:04.112394,5.157,0.307,-4.85,0.0,3.81,6.186,3.81,7163.75,25.03,241.8,238.1,236.6,4.86,50.0,6180.06,855.36,95.0,0.0,7.2,3.39,0.0,0.001,0.002,0.03,10.23375
2022-09-03T15:53:05.091090,1.776,0.278,-1.498,0.0,1.402,6.186,1.402,7164.22,25.5,240.6,233.8,241.3,1.817,49.99,6180.62,855.36,95.0,0.0,7.2,3.39,0.0,0.001,0.001,0.031,10.23875
2022-09-03T16:00:08.644615,1.682,0.315,-1.367,0.0,,,,,,,,,,,,,,,,,,0.002,0.001,0.03,10.2425