Folder: solarmon/docs/data/huawei

Note: README.md
# SolarMon

Monitors a Huawei SUN200-based photovoltaic system.

File: huawei_sun2000_20220901010709.csv
local_time,total_input_power,load_power,grid_power,total_battery_power,input_power,day_active_power_peak,active_power,accumulated_yield_energy,daily_yield_energy,grid_voltage_a_phase,b_phase_voltage,c_phase_voltage,power_meter_active_power,grid_frequency,grid_exported_energy,grid_accumulated_energy,storage_state_of_capacity,storage_charge_discharge_power,storage_current_day_charge_capacity,storage_current_day_discharge_capacity,system_time,backup_switch_to_off_grid,a_phase_active_power,b_phase_active_power,c_phase_active_power,forward_energy
2022-09-01T01:08:22.9227,0.0,0.08,0.002,-0.078,0.0,0.275,0.074,7075.0,0.14,233.3,235.3,236.3,-1.0,49.95,6081.68,855.04,82.0,-74.0,0.0,0.37,1661994497.0,0.0,1.0,1.0,30.0,5.85375
2022-09-01T01:28:35.5951,0.0,0.225,0.0,-0.225,0.0,0.378,0.219,7075.05,0.19,229.8,233.3,232.5,0.0,50.0,6081.68,855.04,81.0,-219.0,0.0,0.48,1661995709.0,0.0,1.0,1.0,30.0,5.865
2022-09-01T01:48:51.0153,0.0,0.211,0.0,-0.211,0.0,0.378,0.205,7075.09,0.23,232.1,232.6,232.6,0.0,50.0,6081.68,855.04,81.0,-205.0,0.0,0.59,1661996925.0,0.0,1.0,1.0,30.0,5.87625
2022-09-01T02:09:04.422771,0.0,0.351,0.0,-0.351,0.0,0.378,0.351,7075.14,0.28,234.6,236.1,235.1,0.0,49.99,6081.68,855.04,81.0,-350.0,0.0,0.69,1661998138.0,0.0,1.0,1.0,30.0,5.8875
2022-09-01T02:29:18.6508,0.0,0.255,0.0,-0.255,0.0,0.378,0.254,7075.24,0.38,232.1,231.3,230.6,-3.0,50.0,6081.68,855.04,80.0,-254.0,0.0,0.85,1661999353.0,0.0,1.0,1.0,29.0,5.8975
2022-09-01T02:49:33.1774,0.0,0.135,0.0,-0.135,0.0,0.378,0.134,7075.29,0.43,232.1,232.5,231.6,-1.0,50.0,6081.68,855.04,80.0,-139.0,0.0,0.99,1662000568.0,0.0,1.0,1.0,30.0,5.91
2022-09-01T03:09:50.8746,0.0,0.128,0.0,-0.128,0.0,0.378,0.127,7075.35,0.49,231.8,234.5,232.6,2.0,49.97,6081.68,855.04,79.0,-126.0,0.0,1.11,1662001786.0,0.0,1.0,1.0,30.0,5.92
2022-09-01T03:30:02.754911,0.0,0.121,0.001,-0.12,0.0,0.378,0.12,7075.4,0.54,232.3,234.6,233.0,-2.0,50.0,6081.68,855.04,79.0,-117.0,0.0,1.23,1662002998.0,0.0,1.0,1.0,29.0,5.93125
2022-09-01T03:50:19.2578,0.0,0.062,0.002,-0.06,0.0,0.378,0.06,7075.44,0.58,233.3,235.1,230.8,0.0,50.0,6081.68,855.04,79.0,-60.0,0.0,1.34,1662004212.0,0.0,1.0,1.0,30.0,5.9425
2022-09-01T04:10:36.4025,0.0,0.573,0.005,-0.568,0.0,0.578,0.574,7075.51,0.65,231.8,234.6,231.8,0.0,49.97,6081.68,855.04,78.0,-574.0,0.0,1.47,1662005431.0,0.0,1.0,1.0,30.0,5.95375
2022-09-01T04:30:49.9083,0.0,0.576,0.005,-0.571,0.0,0.677,0.569,7075.71,0.85,231.8,232.0,234.0,3.0,49.99,6081.68,855.04,78.0,-569.0,0.0,1.74,1662006644.0,0.0,1.0,1.0,30.0,5.965
2022-09-01T04:51:06.884440,0.0,0.522,0.003,-0.519,0.0,0.677,0.518,7075.9,1.04,230.1,235.3,233.3,6.0,50.0,6081.68,855.04,77.0,-518.0,0.0,1.99,1662007860.0,0.0,1.0,1.0,30.0,5.97625
2022-09-01T05:11:23.8922,0.0,0.197,0.048,-0.149,0.0,0.677,0.219,7076.02,1.16,233.3,234.0,233.3,0.0,50.0,6081.68,855.04,76.0,-216.0,0.0,2.21,1662009078.0,0.0,1.0,1.0,30.0,5.9875
2022-09-01T05:31:34.3907,0.0,0.208,0.002,-0.206,0.0,0.677,0.205,7076.07,1.21,232.3,231.8,232.6,0.0,50.0,6081.68,855.04,76.0,-203.0,0.0,2.32,1662010290.0,0.0,1.0,1.0,30.0,5.9975
2022-09-01T05:51:50.2059,0.0,0.153,0.0,-0.153,0.0,0.677,0.154,7076.11,1.25,231.1,232.3,231.5,1.0,50.0,6081.68,855.04,75.0,-153.0,0.0,2.42,1662011505.0,0.0,1.0,1.0,29.0,6.01
2022-09-01T06:12:02.712947,0.0,0.198,-0.001,-0.199,0.0,0.677,0.2,7076.14,1.28,231.3,233.8,232.6,0.0,49.99,6081.68,855.04,75.0,-203.0,0.0,2.52,1662012717.0,0.0,1.0,1.0,30.0,6.02125
2022-09-01T06:32:16.3204,0.0,0.133,0.0,-0.133,0.0,1.68,0.128,7076.26,1.4,231.3,234.5,230.8,-2.0,50.0,6081.68,855.05,74.0,-133.0,0.0,2.71,1662013930.0,0.0,1.0,1.0,29.0,6.03375
2022-09-01T06:52:29.0129,0.075,0.057,-0.021,-0.003,0.046,1.68,0.05,7076.3,1.44,228.8,232.6,230.5,19.0,49.97,6081.68,855.05,74.0,-4.0,0.0,2.79,1662015143.0,0.0,2.0,1.0,30.0,6.04375
2022-09-01T07:12:44.0126,0.318,0.182,0.009,0.145,0.223,1.68,0.087,7076.33,1.47,233.3,236.1,230.8,0.0,49.99,6081.68,855.07,74.0,141.0,0.01,2.82,1662016358.0,0.0,2.0,2.0,29.0,6.05625
2022-09-01T07:33:01.964164,0.374,0.177,0.009,0.206,0.274,1.68,0.056,7076.37,1.51,232.8,235.6,233.3,-10.0,50.0,6081.68,855.07,74.0,213.0,0.03,2.82,1662017576.0,0.0,2.0,1.0,30.0,6.06625
2022-09-01T07:53:14.1171,0.918,0.159,-0.084,0.675,0.673,1.68,0.0,7076.38,1.52,232.1,235.3,231.3,82.0,49.97,6081.7,855.07,74.0,673.0,0.11,2.82,1662018788.0,0.0,1.0,1.0,30.0,6.07875
2022-09-01T08:13:32.5613,1.448,0.161,-0.224,1.063,1.057,1.68,0.0,7076.38,1.52,234.8,237.6,232.5,220.0,49.99,6081.74,855.07,75.0,1056.0,0.33,2.82,1662020007.0,0.0,1.0,1.0,30.0,6.09
2022-09-01T08:33:48.2023,3.793,0.204,-0.794,2.795,2.644,1.68,0.0,7076.38,1.52,238.1,236.1,234.6,725.0,50.0,6081.85,855.07,76.0,2583.0,0.79,2.82,1662021222.0,0.0,1.0,2.0,30.0,6.10125
2022-09-01T08:54:02.710710,2.684,0.169,-0.536,1.979,2.299,1.68,0.0,7076.38,1.52,239.6,235.3,231.6,657.0,50.0,6082.06,855.07,79.0,2299.0,1.5,2.82,1662022437.0,0.0,1.0,1.0,30.0,6.11375
2022-09-01T09:14:14.8523,4.639,0.296,-0.939,3.404,3.69,1.68,0.0,7076.38,1.52,241.8,235.6,233.3,1078.0,50.0,6082.31,855.07,81.0,3728.0,2.21,2.82,1662023649.0,0.0,2.0,1.0,30.0,6.125
2022-09-01T09:34:29.2833,6.668,0.326,-1.373,4.969,4.337,1.68,0.0,7076.38,1.52,246.3,235.6,236.3,1080.0,50.0,6082.72,855.07,85.0,4337.0,3.6,2.82,1662024863.0,0.0,2.0,2.0,30.0,6.13625
2022-09-01T09:54:47.0686,6.481,0.322,-1.384,4.775,3.805,1.68,0.0,7076.38,1.52,243.1,238.6,234.8,1110.0,50.0,6083.14,855.07,89.0,3898.0,5.09,2.82,1662026080.0,0.0,2.0,1.0,30.0,6.1475
2022-09-01T10:15:01.510128,6.791,0.288,-6.503,0.0,5.002,5.101,5.002,7076.8,1.94,243.3,242.0,236.5,6470.0,49.99,6084.12,855.07,95.0,0.0,6.52,2.82,1662027295.0,0.0,1.0,2.0,29.0,6.15875
2022-09-01T10:35:17.6494,7.487,0.467,-7.02,0.0,5.533,5.537,5.533,7078.42,3.56,250.6,240.6,237.5,7125.0,49.97,6086.2,855.07,96.0,0.0,6.53,2.82,1662028512.0,0.0,2.0,1.0,30.0,6.17125
2022-09-01T10:55:30.5118,2.445,0.265,-2.18,0.0,1.777,5.948,1.777,7079.5,4.64,238.6,231.3,235.1,2145.0,49.99,6087.58,855.07,96.0,0.0,6.53,2.82,1662029725.0,0.0,1.0,1.0,29.0,6.1825
2022-09-01T11:15:43.7149,3.395,0.35,-3.045,0.0,1.955,5.948,1.955,7080.18,5.32,235.8,235.8,232.1,2391.0,49.97,6088.41,855.07,96.0,0.0,6.53,2.82,1662030937.0,0.0,1.0,1.0,29.0,6.19375
2022-09-01T11:35:58.4935,5.321,0.172,-5.149,0.0,3.763,5.986,3.763,7081.29,6.43,249.6,238.3,238.8,4885.0,49.99,6089.81,855.07,96.0,0.0,6.53,2.82,1662032154.0,0.0,1.0,1.0,30.0,6.205
2022-09-01T11:56:19.1473,,,,,2.297,5.986,2.297,7082.69,7.83,241.1,239.3,233.3,2881.0,50.0,6091.62,855.07,96.0,0.0,6.53,2.82,1662033373.0,0.0,1.0,1.0,30.0,6.2175
2022-09-01T12:16:30.1026,4.991,2.037,-2.954,0.0,3.735,6.227,3.735,7083.79,8.93,245.6,240.8,231.3,3147.0,50.0,6092.87,855.07,96.0,0.0,6.53,2.82,1662034585.0,0.0,2.0,1.0,29.0,6.22875
2022-09-01T12:36:44.1823,7.65,0.305,-7.345,0.0,6.199,7.599,6.199,7085.64,10.78,251.3,244.8,240.3,8067.0,49.97,6095.12,855.07,96.0,0.0,6.53,2.82,1662035799.0,0.0,2.0,1.0,31.0,6.24
2022-09-01T12:56:58.0846,3.792,0.156,-3.636,0.0,2.781,7.599,2.781,7086.82,11.96,237.1,234.3,235.3,3646.0,50.02,6096.62,855.07,96.0,0.0,6.54,2.82,1662037012.0,0.0,2.0,2.0,30.0,6.25125
2022-09-01T13:17:13.105,3.426,0.215,-3.211,0.0,2.498,7.599,2.498,7087.76,12.9,238.1,235.8,233.3,3205.0,50.0,6097.85,855.07,96.0,0.0,6.54,2.82,1662038229.0,0.0,1.0,1.0,30.0,6.26375
2022-09-01T13:37:27.2157,3.226,0.226,-3.0,0.0,2.404,7.599,2.404,7088.61,13.75,240.8,236.3,231.3,2962.0,50.0,6098.91,855.07,96.0,0.0,6.54,2.82,1662039441.0,0.0,2.0,2.0,29.0,6.275
2022-09-01T13:57:41.5336,7.548,0.335,-7.213,0.0,5.472,7.599,5.472,7090.02,15.16,244.3,241.8,236.6,7130.0,50.02,6100.75,855.07,96.0,0.0,6.54,2.82,1662040655.0,0.0,1.0,1.0,31.0,6.2875
2022-09-01T14:17:53.4202,5.186,0.366,-4.82,0.0,3.575,7.599,3.575,7091.57,16.7,240.1,238.8,235.8,4453.0,49.99,6102.75,855.07,96.0,0.0,6.54,2.82,1662041868.0,0.0,2.0,1.0,30.0,6.29875
2022-09-01T14:38:07.707377,6.363,0.35,-6.013,0.0,4.531,7.599,4.531,7092.92,18.06,243.5,239.8,235.3,5825.0,50.0,6104.49,855.07,96.0,0.0,6.54,2.82,1662043082.0,0.0,2.0,2.0,30.0,6.31
2022-09-01T14:58:23.0033,6.405,0.401,-6.004,0.0,4.673,7.599,4.673,7094.51,19.65,245.3,238.1,237.1,5995.0,49.99,6106.52,855.07,96.0,0.0,6.54,2.82,1662044298.0,0.0,2.0,2.0,30.0,6.3225
2022-09-01T15:18:37.0332,5.695,0.308,-5.387,0.0,4.18,7.599,4.18,7096.01,21.15,241.8,239.8,237.3,5402.0,49.97,6108.43,855.07,96.0,0.0,6.55,2.82,1662045512.0,0.0,2.0,2.0,30.0,6.33375
2022-09-01T15:38:53.3083,5.448,1.003,-4.445,0.0,3.925,7.599,3.925,7097.37,22.51,242.8,237.8,235.3,5024.0,49.97,6110.16,855.07,96.0,0.0,6.55,2.82,1662046728.0,0.0,1.0,2.0,30.0,6.345
2022-09-01T15:59:07.464517,4.633,0.376,-4.257,0.0,3.359,7.599,3.359,7098.57,23.71,245.1,234.5,237.8,4205.0,50.02,6111.49,855.07,96.0,0.0,6.55,2.82,1662047942.0,0.0,2.0,2.0,31.0,6.3575
2022-09-01T16:19:20.0174,4.877,3.604,-1.273,0.0,3.701,7.599,3.701,7099.71,24.85,236.8,241.0,239.8,1383.0,49.99,6112.75,855.07,96.0,0.0,6.55,2.82,1662049154.0,0.0,1.0,2.0,31.0,6.36875
2022-09-01T16:39:34.6015,1.325,1.137,-0.188,0.0,0.96,7.599,1.26,7100.31,25.45,235.3,233.1,234.5,959.0,50.0,6113.08,855.07,95.0,-300.0,6.55,2.84,1662050366.0,0.0,1.0,2.0,30.0,6.38
2022-09-01T16:59:49.2313,0.905,1.047,-0.459,-0.601,0.633,7.599,1.173,7100.64,25.78,222.8,238.8,236.8,300.0,50.02,6113.12,855.08,95.0,-1337.0,6.55,2.9,1662051585.0,0.0,1.0,1.0,30.0,6.39125
2022-09-01T17:20:08.799793,0.617,0.513,-0.104,0.0,,,,,,,,,,,,,,,,,,,2.0,1.0,30.0,6.40375
2022-09-01T17:40:23.1788,2.268,0.262,-2.006,0.0,0.901,7.599,0.901,7101.12,26.26,236.3,232.3,231.3,872.0,49.97,6113.35,855.09,95.0,0.0,6.56,3.03,1662054017.0,0.0,1.0,1.0,29.0,6.41625
2022-09-01T18:00:38.8424,0.423,0.417,-0.006,0.0,0.292,7.599,0.292,7101.27,26.41,233.1,238.1,233.8,12.0,50.04,6113.47,855.09,95.0,0.0,6.56,3.03,1662055232.0,0.0,1.0,2.0,30.0,6.42625
2022-09-01T18:20:52.5243,0.181,0.322,0.007,-0.134,0.127,7.599,0.257,7101.36,26.5,231.1,236.6,234.1,3.0,49.97,6113.47,855.09,95.0,-130.0,6.56,3.07,1662056447.0,0.0,1.0,2.0,30.0,6.43875
2022-09-01T18:41:08.534042,0.284,0.281,-0.003,0.0,0.201,7.599,0.201,7101.42,26.56,228.3,236.8,233.6,18.0,49.95,6113.47,855.09,95.0,0.0,6.56,3.08,1662057664.0,0.0,1.0,2.0,30.0,6.44875
2022-09-01T19:01:23.8176,0.141,0.939,0.001,-0.797,0.096,7.599,0.898,7101.66,26.8,231.3,236.6,234.0,-5.0,50.04,6113.47,855.09,95.0,-807.0,6.56,3.28,1662058878.0,0.0,1.0,2.0,30.0,6.46125
2022-09-01T19:14:55.5356,0.046,0.903,-0.001,-0.858,0.036,7.599,0.901,7101.85,26.99,232.0,234.1,228.5,0.0,50.0,6113.47,855.09,93.0,-860.0,6.57,3.52,1662059690.0,0.0,2.0,1.0,29.0,6.46875

File: huawei_sun2000_20220904193653.csv
local_time,input_power,day_active_power_peak,active_power,accumulated_yield_energy,daily_yield_energy,grid_voltage_a_phase,b_phase_voltage,c_phase_voltage,power_meter_active_power,grid_frequency,grid_exported_energy,grid_accumulated_energy,storage_state_of_capacity,storage_charge_discharge_power,storage_current_day_charge_capacity,storage_current_day_discharge_capacity,backup_switch_to_off_grid,a_phase_active_power,b_phase_active_power,c_phase_active_power,forward_energy
2022-09-04T19:39:01.203852,0.0,6.354,1.054,7203.4,32.28,227.1,236.3,233.6,-0.033,49.95,6220.35,855.92,86.0,-1.054,8.55,5.85,0.0,0.001,0.001,0.03,12.13875
2022-09-04T20:00:25.0317,0.0,6.354,0.755,7203.73,32.61,227.6,236.8,233.8,0.0,49.99,6220.35,855.92,85.0,-0.755,8.55,6.25,0.0,0.002,0.001,0.03,12.15125
2022-09-04T20:21:48.1471,0.0,6.354,1.061,7204.05,32.93,230.6,233.3,235.3,0.049,49.99,6220.35,855.92,84.0,-1.061,8.55,6.67,0.0,0.002,0.001,0.03,12.1625
2022-09-04T20:43:12.1994,0.0,6.354,0.936,7204.43,33.31,230.0,235.6,234.3,-0.038,50.02,6220.35,855.92,82.0,-0.936,8.55,7.13,0.0,0.001,0.001,0.03,12.17625
2022-09-04T21:04:36.0518,0.0,6.354,0.67,7204.71,33.59,228.8,234.8,234.8,-0.016,49.95,6220.35,855.94,81.0,-0.644,8.55,7.54,0.0,0.001,0.001,0.03,12.1875
2022-09-04T21:26:00.251244,0.0,6.354,0.553,7204.92,33.8,231.8,232.6,233.8,-0.001,50.0,6220.35,855.94,80.0,-0.553,8.55,7.82,0.0,0.001,0.001,0.03,12.2
2022-09-04T21:47:23.9381,0.0,6.354,0.838,7205.15,34.03,230.3,234.5,234.6,-0.034,50.02,6220.35,855.94,79.0,-0.838,8.55,8.12,0.0,0.001,0.001,0.03,12.2125
2022-09-04T22:08:47.8034,0.0,6.354,0.417,7205.38,34.26,230.8,236.0,235.1,-0.007,49.99,6220.35,855.94,78.0,-0.417,8.55,8.43,0.0,0.001,0.001,0.03,12.22375
2022-09-04T22:30:11.4319,0.0,6.354,0.593,7205.53,34.41,229.3,232.3,230.8,-0.001,49.95,6220.35,855.94,77.0,-0.593,8.55,8.66,0.0,0.001,0.001,0.029,12.23625
2022-09-04T22:51:35.417,0.0,6.354,0.596,7205.7,34.58,231.5,237.3,233.8,0.007,49.97,6220.35,855.94,76.0,-0.596,8.55,8.9,0.0,0.001,0.001,0.03,12.24875
2022-09-04T23:12:58.9859,0.0,6.354,0.385,7205.86,34.74,229.6,231.6,232.1,-0.003,50.02,6220.35,855.94,76.0,-0.385,8.55,9.15,0.0,0.001,0.001,0.03,12.26
2022-09-04T23:34:22.7701,0.0,6.354,0.519,7206.03,34.91,231.0,234.8,230.8,0.0,49.97,6220.35,855.94,75.0,-0.519,8.55,9.37,0.0,0.001,0.001,0.029,12.2725
2022-09-04T23:55:46.7948,0.0,6.354,0.446,7206.22,35.1,231.3,233.6,229.3,-0.004,50.0,6220.35,855.95,74.0,-0.443,8.55,9.67,0.0,0.002,0.001,0.029,12.28375
2022-09-05T00:17:10.3295,0.0,0.386,0.163,7206.29,0.05,231.8,232.8,231.8,-0.002,49.99,6220.35,855.95,74.0,-0.163,0.0,0.11,0.0,0.001,0.001,0.029,12.29625
2022-09-05T00:38:33.9989,0.0,0.386,0.152,7206.36,0.12,231.6,231.8,233.8,0.001,50.0,6220.35,855.95,73.0,-0.152,0.0,0.27,0.0,0.001,0.001,0.03,12.30875
2022-09-05T00:59:57.5162,0.0,0.386,0.152,7206.42,0.18,233.6,234.6,233.6,0.0,49.99,6220.35,855.95,73.0,-0.152,0.0,0.39,0.0,0.001,0.001,0.03,12.32
2022-09-05T01:21:21.3606,0.0,0.386,0.244,7206.48,0.24,233.3,233.8,232.6,-0.003,50.02,6220.35,855.95,72.0,-0.244,0.0,0.53,0.0,0.001,0.001,0.029,12.3325
2022-09-05T01:42:44.6649,0.0,0.386,0.179,7206.52,0.28,231.8,231.8,233.3,-0.001,50.0,6220.35,855.95,72.0,-0.179,0.0,0.64,0.0,0.001,0.001,0.03,12.34375
2022-09-05T02:04:08.741046,0.0,0.386,0.143,7206.58,0.34,234.6,235.3,234.1,0.002,49.93,6220.35,855.95,72.0,-0.143,0.0,0.77,0.0,0.001,0.001,0.03,12.35625
2022-09-05T02:25:32.6075,0.0,0.386,0.083,7206.62,0.38,233.3,234.3,231.8,0.0,50.0,6220.35,855.95,71.0,-0.083,0.0,0.88,0.0,0.001,0.001,0.029,12.3675
2022-09-05T02:46:56.8719,0.0,0.386,0.116,7206.66,0.42,232.8,235.1,233.3,-0.003,49.99,6220.35,855.95,71.0,-0.116,0.0,0.99,0.0,0.001,0.001,0.03,12.38
2022-09-05T03:08:20.371,0.0,0.386,0.124,7206.72,0.48,233.3,234.6,232.8,0.001,49.97,6220.35,855.95,71.0,-0.124,0.0,1.11,0.0,0.001,0.001,0.03,12.3925
2022-09-05T03:29:44.0579,0.0,0.386,0.077,7206.76,0.52,233.0,233.6,232.5,-0.001,50.0,6220.35,855.95,70.0,-0.077,0.0,1.23,0.0,0.001,0.001,0.03,12.40375
2022-09-05T03:51:07.724131,0.0,0.386,0.126,7206.8,0.56,234.8,235.3,233.3,-0.001,49.99,6220.35,855.95,70.0,-0.126,0.0,1.33,0.0,0.001,0.001,0.029,12.41625
2022-09-05T04:12:30.7144,0.0,0.59,0.542,7206.91,0.67,232.3,233.6,234.3,-0.086,49.97,6220.35,855.95,70.0,-0.542,0.0,1.52,0.0,0.001,0.001,0.03,12.4275
2022-09-05T04:33:54.2658,0.0,0.711,0.622,7207.12,0.88,231.1,234.3,232.6,-0.003,49.97,6220.35,855.95,69.0,-0.626,0.0,1.78,0.0,0.001,0.001,0.029,12.44
2022-09-05T04:55:17.8556,0.0,0.711,0.664,7207.33,1.09,231.6,235.3,232.6,0.002,50.0,6220.35,855.95,68.0,-0.664,0.0,2.09,0.0,0.002,0.001,0.029,12.4525
2022-09-05T05:16:40.93,0.0,0.711,0.076,7207.43,1.19,232.3,233.6,230.6,0.001,50.0,6220.35,855.95,67.0,-0.076,0.0,2.27,0.0,0.001,0.001,0.029,12.46375
2022-09-05T05:38:04.677811,0.0,0.711,0.095,7207.47,1.23,234.5,234.6,232.1,-0.004,49.97,6220.35,855.95,67.0,-0.095,0.0,2.37,0.0,0.001,0.001,0.029,12.47625
2022-09-05T05:59:27.7265,0.0,0.711,0.101,7207.51,1.27,232.3,232.3,231.6,0.001,50.02,6220.35,855.95,66.0,-0.101,0.0,2.48,0.0,0.001,0.001,0.03,12.4875
2022-09-05T06:20:51.4623,0.0,0.711,0.156,7207.58,1.34,230.8,235.0,231.8,0.0,49.99,6220.35,855.95,66.0,-0.156,0.0,2.62,0.0,0.001,0.001,0.03,12.5
2022-09-05T06:42:15.3037,0.02,1.703,1.695,7207.68,1.43,228.8,235.6,235.1,0.003,50.0,6220.35,855.95,65.0,-1.675,0.0,2.75,0.0,0.002,0.001,0.03,12.51125
2022-09-05T07:03:39.2498,0.069,1.703,0.153,7207.81,1.57,231.3,235.6,232.8,0.0,50.0,6220.35,855.96,65.0,-0.084,0.0,2.97,0.0,0.001,0.001,0.03,12.52375
2022-09-05T07:25:02.584927,0.137,1.703,0.174,7207.88,1.64,232.5,234.3,234.3,-0.016,50.0,6220.35,855.96,64.0,-0.037,0.0,3.05,0.0,0.001,0.001,0.03,12.53625
2022-09-05T07:46:26.649,1.09,1.703,0.064,7207.93,1.69,233.8,234.3,233.1,0.001,49.95,6220.35,856.0,64.0,1.026,0.09,3.08,0.0,0.001,0.001,0.03,12.5475
2022-09-05T08:07:50.3496,1.877,1.703,0.0,7207.93,1.69,233.1,232.8,233.1,0.465,50.0,6220.47,856.0,66.0,1.877,0.5,3.08,0.0,0.001,0.001,0.03,12.56
2022-09-05T08:29:13.9121,2.414,1.703,0.0,7207.93,1.69,234.5,234.3,233.8,0.761,50.0,6220.7,856.0,68.0,2.414,1.24,3.08,0.0,0.001,0.001,0.03,12.5725
2022-09-05T08:50:37.9803,2.66,1.703,0.0,7207.93,1.69,237.1,235.8,233.8,0.804,50.0,6221.0,856.0,70.0,2.66,2.03,3.08,0.0,0.001,0.001,0.03,12.58375
2022-09-05T09:12:02.116839,3.373,1.703,0.0,7207.93,1.69,239.6,238.1,231.1,1.022,50.02,6221.29,856.0,73.0,3.373,3.04,3.08,0.0,0.001,0.001,0.029,12.59625
2022-09-05T09:33:25.8722,2.848,1.703,0.0,7207.93,1.69,240.5,237.6,231.8,0.91,49.97,6221.62,856.0,76.0,2.848,4.01,3.08,0.0,0.001,0.001,0.029,12.6075
2022-09-05T09:54:49.1173,4.001,1.703,0.0,7207.93,1.69,236.6,236.8,234.6,1.253,50.04,6221.99,856.0,80.0,4.001,5.15,3.08,0.0,0.002,0.002,0.03,12.62
2022-09-05T10:16:12.6759,2.768,1.703,0.0,7207.93,1.69,233.3,236.1,229.3,0.693,49.97,6222.35,856.0,83.0,2.768,6.29,3.08,0.0,0.001,0.002,0.029,12.63375
2022-09-05T10:37:36.5626,4.473,1.703,0.0,7207.93,1.69,246.1,242.3,235.1,1.256,50.0,6222.68,856.0,87.0,4.473,7.27,3.08,0.0,0.001,0.001,0.028,12.645
2022-09-05T10:58:59.7271,4.102,1.703,0.0,7207.93,1.69,242.8,238.8,235.1,1.269,50.02,6223.12,856.0,90.0,4.102,8.55,3.08,0.0,0.002,0.001,0.03,12.6575
2022-09-05T11:20:22.5429,5.264,5.264,5.264,7208.3,2.06,249.3,242.3,239.3,6.946,49.97,6224.02,856.0,95.0,0.0,10.13,3.08,0.0,0.001,0.002,0.031,12.66875
2022-09-05T11:41:45.8831,5.537,5.541,5.537,7209.92,3.68,249.6,239.5,234.6,7.27,49.97,6226.16,856.0,95.0,0.0,10.13,3.08,0.0,0.001,0.001,0.029,12.68125
2022-09-05T12:03:09.371856,2.439,5.842,2.439,7211.21,4.97,240.1,232.6,233.6,3.032,49.97,6227.83,856.0,95.0,0.0,10.13,3.08,0.0,0.001,0.001,0.03,12.69375
2022-09-05T12:24:33.0907,2.572,5.842,2.572,7212.36,6.12,238.6,237.8,235.3,3.388,50.0,6229.35,856.0,95.0,0.0,10.13,3.08,0.0,0.001,0.001,0.03,12.70625
2022-09-05T12:45:57.3123,5.195,5.842,5.195,7213.37,7.13,249.1,243.1,238.8,7.002,50.0,6230.68,856.0,95.0,0.0,10.15,3.08,0.0,0.002,0.002,0.03,12.7175
2022-09-05T13:07:21.1427,5.454,5.842,5.454,7215.08,8.84,246.0,239.1,235.6,7.008,49.97,6232.95,856.0,95.0,0.0,10.15,3.08,0.0,0.002,0.002,0.03,12.73125
2022-09-05T13:28:44.3954,4.872,5.842,4.872,7216.93,10.69,243.6,241.3,237.6,6.209,50.02,6235.37,856.0,95.0,0.0,10.15,3.08,0.0,0.001,0.002,0.031,12.74375
2022-09-05T13:50:07.805493,5.703,5.842,5.703,7218.06,11.82,251.3,241.8,235.3,7.567,50.0,6236.87,856.0,95.0,0.0,10.16,3.08,0.0,0.001,0.002,0.03,12.75625
2022-09-05T14:11:31.4811,4.804,5.842,4.804,7219.87,13.63,249.3,239.5,234.6,6.366,50.0,6239.25,856.0,95.0,0.0,10.17,3.08,0.0,0.001,0.002,0.03,12.7675
2022-09-05T14:32:55.1304,4.554,5.842,4.554,7221.53,15.29,248.0,238.8,236.5,5.996,49.99,6241.45,856.0,95.0,0.0,10.17,3.08,0.0,0.001,0.002,0.03,12.78
2022-09-05T14:54:18.5727,4.309,5.842,4.309,7223.11,16.87,247.0,239.5,237.8,5.666,49.97,6243.5,856.0,95.0,0.0,10.17,3.08,0.0,0.001,0.002,0.03,12.79375
2022-09-05T15:15:42.1993,4.011,5.842,4.011,7224.57,18.33,246.8,237.8,236.8,5.281,49.97,6245.45,856.0,95.0,0.0,10.19,3.08,0.0,0.002,0.002,0.03,12.805
2022-09-05T15:37:05.985106,3.586,5.842,3.586,7225.93,19.69,243.3,238.5,237.8,4.683,50.0,6247.22,856.0,95.0,0.0,10.19,3.08,0.0,0.002,0.002,0.031,12.8175
2022-09-05T15:58:29.9949,3.142,5.842,3.142,7227.13,20.89,244.3,235.6,236.8,4.152,50.0,6248.74,856.0,95.0,0.0,10.19,3.08,0.0,0.001,0.002,0.03,12.83125
2022-09-05T16:19:53.7763,2.6,5.842,2.6,7228.15,21.91,241.8,236.3,234.8,-0.756,50.0,6249.58,856.0,95.0,0.0,10.2,3.09,0.0,0.761,0.728,0.862,13.3175
2022-09-05T16:41:17.6051,2.309,5.842,2.309,7228.98,22.74,243.3,233.6,232.8,3.023,49.97,6249.85,856.0,95.0,0.0,10.22,3.1,0.0,0.002,0.002,0.029,14.10125
2022-09-05T17:02:41.1995,1.782,5.842,1.782,7229.71,23.47,242.6,236.1,230.3,1.699,50.02,6250.66,856.0,95.0,0.0,10.22,3.1,0.0,0.002,0.002,0.029,14.11375
2022-09-05T17:24:05.407929,1.504,5.842,1.504,7230.28,24.04,239.1,234.8,227.1,1.34,49.97,6251.2,856.0,95.0,0.0,10.22,3.1,0.0,0.002,0.001,0.029,14.125
2022-09-05T17:45:29.2824,0.974,5.842,0.974,7230.69,24.45,237.1,235.8,235.0,1.163,49.97,6251.64,856.0,95.0,0.0,10.22,3.1,0.0,0.001,0.001,0.03,14.13875
2022-09-05T18:06:53.3355,0.369,5.842,0.369,7230.95,24.71,233.3,231.8,228.8,0.274,50.02,6251.95,856.0,95.0,0.0,10.23,3.1,0.0,0.001,0.001,0.029,14.14875
2022-09-05T18:28:17.434,0.29,5.842,0.642,7231.15,24.91,231.5,234.6,231.3,0.013,49.97,6252.02,856.0,95.0,-0.374,10.24,3.14,0.0,0.002,0.001,0.029,14.1625
2022-09-05T18:49:40.9895,0.138,5.842,0.674,7231.39,25.15,230.6,234.3,232.0,-0.022,49.97,6252.02,856.0,94.0,-0.536,10.24,3.36,0.0,0.001,0.001,0.029,14.17375
2022-09-05T19:06:14.0258,0.058,5.842,0.745,7231.59,25.35,231.3,235.1,231.0,-0.004,50.02,6252.02,856.0,93.0,-0.687,10.24,3.6,0.0,0.001,0.001,0.03,14.18375